time (ms),acceleration x,acceleration y,acceleration z,gyro x,gyro y,gyro z
656,0.946,-0.002,-9.428,-0.006,0.011,-0.02
759,0.941,-0.01,-9.436,-0.006,0.011,-0.02
862,0.946,-0.007,-9.431,-0.007,0.011,-0.02
965,0.946,-0.002,-9.424,-0.006,0.011,-0.02
1068,0.934,0.0,-9.421,-0.006,0.011,-0.02
1171,0.946,-0.002,-9.44,-0.007,0.011,-0.02
1274,0.939,-0.017,-9.416,-0.007,0.011,-0.02
1377,0.943,-0.017,-9.436,-0.006,0.011,-0.02
1480,0.946,-0.01,-9.431,-0.006,0.011,-0.02
1583,0.95,-0.012,-9.409,-0.007,0.011,-0.02
1686,0.943,-0.007,-9.426,-0.006,0.011,-0.02
1789,0.946,-0.017,-9.433,-0.006,0.011,-0.02
1892,0.936,-0.017,-9.426,-0.006,0.011,-0.02
1995,0.948,-0.012,-9.431,-0.007,0.011,-0.02
2098,0.939,-0.01,-9.424,-0.006,0.011,-0.02
2201,0.934,-0.007,-9.433,-0.007,0.011,-0.021
2304,0.948,0.002,-9.431,-0.006,0.011,-0.021
2407,0.946,-0.014,-9.416,-0.006,0.011,-0.02
2510,0.958,-0.005,-9.412,-0.007,0.011,-0.02
2613,0.946,0.002,-9.428,-0.007,0.011,-0.021
2716,0.934,-0.014,-9.419,-0.006,0.012,-0.02
2819,0.953,-0.012,-9.426,-0.006,0.011,-0.02
2922,0.931,-0.005,-9.448,-0.007,0.011,-0.02
3025,0.943,-0.002,-9.438,-0.007,0.011,-0.02
3128,0.948,-0.01,-9.431,-0.006,0.011,-0.02
3231,0.931,0.0,-9.424,-0.007,0.011,-0.02
3334,0.941,-0.007,-9.436,-0.006,0.011,-0.02
3437,0.941,-0.007,-9.445,-0.006,0.011,-0.02
3540,0.939,-0.012,-9.431,-0.007,0.011,-0.019
3643,0.941,-0.007,-9.448,-0.007,0.011,-0.02
3746,0.948,-0.01,-9.445,-0.007,0.011,-0.02
3849,0.934,-0.019,-9.424,-0.006,0.011,-0.021
3952,0.939,-0.002,-9.431,-0.006,0.011,-0.02
4055,0.934,0.005,-9.428,-0.006,0.011,-0.02
4158,0.943,-0.026,-9.438,-0.007,0.011,-0.02
4261,0.948,-0.002,-9.426,-0.006,0.011,-0.021
4364,0.931,-0.019,-9.421,-0.006,0.011,-0.02
4467,0.943,-0.01,-9.431,-0.007,0.011,-0.021
4570,0.946,-0.012,-9.433,-0.007,0.011,-0.02
4673,0.931,-0.01,-9.433,-0.006,0.011,-0.02
4776,0.943,-0.005,-9.436,-0.006,0.011,-0.021
4879,0.936,-0.002,-9.431,-0.007,0.011,-0.02
4982,0.936,-0.022,-9.436,-0.007,0.011,-0.02
5085,0.934,-0.002,-9.44,-0.007,0.011,-0.02
5188,0.936,-0.01,-9.445,-0.006,0.011,-0.02
5291,0.929,-0.012,-9.436,-0.007,0.011,-0.02
5394,0.943,-0.002,-9.433,-0.006,0.011,-0.02
5497,0.939,0.0,-9.421,-0.006,0.011,-0.02
5600,0.943,-0.005,-9.45,-0.006,0.011,-0.02
5703,0.948,-0.007,-9.443,-0.007,0.011,-0.02
5806,0.922,0.0,-9.428,-0.006,0.011,-0.02
5909,0.946,-0.002,-9.431,-0.006,0.011,-0.02
6012,0.941,-0.005,-9.436,-0.007,0.011,-0.02
6115,0.924,-0.007,-9.431,-0.007,0.011,-0.02
6218,0.939,-0.007,-9.421,-0.007,0.011,-0.02
6321,0.946,-0.002,-9.428,-0.006,0.011,-0.02
6424,0.939,-0.005,-9.438,-0.007,0.011,-0.02
6527,0.939,0.0,-9.45,-0.006,0.01,-0.02
6630,0.939,-0.005,-9.426,-0.007,0.011,-0.02
6733,0.946,-0.01,-9.428,-0.007,0.011,-0.02
6836,0.943,-0.002,-9.431,-0.007,0.011,-0.02
6939,0.936,-0.01,-9.438,-0.006,0.011,-0.02
7042,0.946,-0.007,-9.428,-0.006,0.011,-0.021
7145,0.939,-0.01,-9.436,-0.007,0.011,-0.02
7248,0.95,-0.01,-9.431,-0.007,0.011,-0.02
7351,0.946,-0.012,-9.433,-0.007,0.011,-0.02
7454,0.936,-0.01,-9.436,-0.006,0.011,-0.02
7557,0.941,-0.01,-9.431,-0.007,0.011,-0.02
7660,0.946,-0.01,-9.433,-0.006,0.011,-0.02
7763,0.939,-0.01,-9.428,-0.007,0.011,-0.02
7866,0.934,-0.017,-9.44,-0.007,0.011,-0.02
7969,0.95,-0.005,-9.431,-0.006,0.011,-0.02
8072,0.936,-0.007,-9.421,-0.007,0.011,-0.02
8175,0.941,-0.014,-9.428,-0.007,0.011,-0.021
8278,0.931,-0.007,-9.443,-0.006,0.011,-0.02
8381,0.941,-0.007,-9.419,-0.007,0.011,-0.02
8484,0.948,-0.017,-9.44,-0.006,0.011,-0.02
8587,0.936,-0.01,-9.424,-0.007,0.011,-0.019
8690,0.943,-0.012,-9.433,-0.006,0.011,-0.021
8793,0.946,-0.002,-9.443,-0.006,0.011,-0.02
8896,0.936,0.0,-9.414,-0.006,0.011,-0.02
8999,0.946,0.0,-9.443,-0.006,0.011,-0.02
9102,0.943,-0.002,-9.428,-0.006,0.011,-0.02
9205,0.943,-0.019,-9.433,-0.006,0.011,-0.02
9308,0.939,-0.002,-9.416,-0.007,0.011,-0.02
9411,0.931,-0.01,-9.436,-0.007,0.011,-0.02
9514,0.936,-0.007,-9.438,-0.007,0.011,-0.02
9617,0.946,-0.01,-9.428,-0.006,0.011,-0.02
9720,0.934,-0.022,-9.436,-0.007,0.011,-0.02
9823,0.943,0.0,-9.433,-0.007,0.011,-0.021
9926,0.936,-0.01,-9.44,-0.007,0.011,-0.02
10029,0.934,-0.007,-9.424,-0.007,0.011,-0.02
10132,0.943,-0.012,-9.44,-0.007,0.011,-0.02
10235,0.931,-0.005,-9.428,-0.006,0.011,-0.021
10338,0.936,-0.01,-9.443,-0.006,0.011,-0.02
10441,0.943,0.005,-9.445,-0.007,0.011,-0.02
10544,0.936,-0.005,-9.44,-0.006,0.011,-0.02
10647,0.929,-0.005,-9.426,-0.007,0.01,-0.021
10750,0.943,-0.002,-9.443,-0.007,0.011,-0.02
10853,0.934,-0.002,-9.433,-0.007,0.011,-0.02
10956,0.95,-0.007,-9.426,-0.006,0.011,-0.02
11059,0.943,0.007,-9.443,-0.007,0.011,-0.021
11162,0.941,-0.005,-9.445,-0.007,0.011,-0.02
11265,0.946,-0.017,-9.438,-0.007,0.011,-0.021
11368,0.939,-0.007,-9.436,-0.007,0.011,-0.02
11471,0.929,0.0,-9.445,-0.007,0.011,-0.02
11574,0.948,-0.002,-9.438,-0.006,0.011,-0.02
11677,0.939,0.0,-9.443,-0.007,0.011,-0.02
11780,0.943,-0.007,-9.436,-0.006,0.011,-0.02
11883,0.943,-0.005,-9.44,-0.007,0.011,-0.02
11986,0.936,-0.012,-9.436,-0.007,0.011,-0.021
12089,0.953,-0.007,-9.431,-0.007,0.011,-0.021
12192,0.934,-0.014,-9.445,-0.006,0.011,-0.02
12295,0.939,-0.002,-9.436,-0.007,0.011,-0.02
12398,0.941,-0.007,-9.431,-0.007,0.011,-0.02
12501,0.939,-0.01,-9.426,-0.006,0.01,-0.02
12604,0.936,-0.005,-9.436,-0.007,0.011,-0.021
12707,0.948,-0.012,-9.438,-0.007,0.011,-0.02
12810,0.939,-0.002,-9.438,-0.007,0.011,-0.02
12913,0.931,-0.01,-9.421,-0.007,0.011,-0.02
13016,0.946,-0.012,-9.436,-0.007,0.011,-0.02
13119,0.929,-0.019,-9.436,-0.006,0.011,-0.02
13222,0.943,-0.005,-9.44,-0.006,0.011,-0.02
13325,0.941,-0.014,-9.44,-0.007,0.011,-0.02
13428,0.946,0.005,-9.445,-0.007,0.011,-0.021
13531,0.946,-0.01,-9.436,-0.007,0.011,-0.02
13634,0.929,-0.01,-9.45,-0.006,0.011,-0.021
13737,0.939,-0.005,-9.445,-0.007,0.011,-0.021
13840,0.946,-0.01,-9.457,-0.006,0.011,-0.02
13943,0.939,-0.007,-9.426,-0.007,0.011,-0.02
14046,0.946,-0.014,-9.431,-0.006,0.011,-0.02
14149,0.943,-0.012,-9.445,-0.007,0.011,-0.02
14252,0.934,-0.012,-9.421,-0.006,0.011,-0.02
14355,0.939,-0.014,-9.45,-0.007,0.011,-0.02
14458,0.936,-0.014,-9.428,-0.007,0.011,-0.02
14561,0.936,-0.007,-9.438,-0.006,0.011,-0.02
14664,0.95,0.0,-9.438,-0.007,0.011,-0.02
14767,0.936,-0.017,-9.433,-0.007,0.011,-0.02
14870,0.943,-0.01,-9.431,-0.007,0.011,-0.021
14973,0.95,-0.005,-9.448,-0.007,0.011,-0.021
15076,0.946,-0.01,-9.436,-0.007,0.011,-0.021
15179,0.95,-0.007,-9.443,-0.006,0.011,-0.02
15282,0.948,-0.002,-9.448,-0.006,0.011,-0.02
15385,0.929,-0.01,-9.436,-0.006,0.011,-0.02
15488,0.953,0.0,-9.431,-0.006,0.011,-0.021
15591,0.953,-0.007,-9.436,-0.006,0.011,-0.02
15694,0.946,-0.005,-9.443,-0.007,0.011,-0.021
15797,0.941,-0.01,-9.44,-0.006,0.011,-0.021
15900,0.941,-0.002,-9.44,-0.007,0.011,-0.021
16003,0.941,-0.014,-9.438,-0.007,0.011,-0.02
16106,0.943,-0.002,-9.433,-0.007,0.011,-0.02
16209,0.927,-0.002,-9.438,-0.007,0.011,-0.02
16312,0.943,-0.012,-9.424,-0.007,0.011,-0.02
16415,0.939,-0.005,-9.431,-0.007,0.011,-0.02
16518,0.943,-0.014,-9.436,-0.006,0.011,-0.021
16621,0.946,-0.019,-9.44,-0.007,0.011,-0.02
16724,0.941,-0.012,-9.44,-0.006,0.011,-0.02
16827,0.934,0.0,-9.443,-0.007,0.011,-0.02
16930,0.941,-0.002,-9.445,-0.007,0.011,-0.02
17033,0.939,-0.005,-9.426,-0.007,0.011,-0.02
17136,0.931,-0.002,-9.431,-0.007,0.011,-0.02
17239,0.95,-0.012,-9.44,-0.007,0.011,-0.02
17342,0.936,-0.002,-9.44,-0.007,0.011,-0.02
17445,0.941,-0.012,-9.436,-0.007,0.011,-0.02
17548,0.936,-0.002,-9.419,-0.007,0.011,-0.021
17651,0.939,-0.012,-9.428,-0.007,0.011,-0.021
17754,0.946,-0.007,-9.44,-0.006,0.011,-0.021
17857,0.936,-0.007,-9.428,-0.007,0.011,-0.02
17960,0.939,0.0,-9.455,-0.007,0.011,-0.02
18063,0.948,-0.007,-9.426,-0.007,0.011,-0.02
18166,0.948,-0.002,-9.438,-0.007,0.011,-0.02
18269,0.943,-0.007,-9.455,-0.007,0.011,-0.02
18372,0.943,-0.014,-9.431,-0.007,0.011,-0.02
18475,0.939,-0.012,-9.424,-0.006,0.011,-0.02
18578,0.95,-0.005,-9.421,-0.007,0.011,-0.02
18681,0.931,-0.002,-9.438,-0.007,0.011,-0.02
18784,0.934,-0.012,-9.438,-0.006,0.011,-0.02
18887,0.943,-0.017,-9.428,-0.007,0.011,-0.02
18990,0.941,-0.01,-9.412,-0.007,0.011,-0.02
19093,0.946,-0.01,-9.448,-0.007,0.011,-0.02
19196,0.95,-0.014,-9.433,-0.007,0.011,-0.02
19299,0.922,-0.017,-9.433,-0.007,0.011,-0.021
19402,0.936,-0.014,-9.428,-0.007,0.011,-0.02
19505,0.939,-0.012,-9.436,-0.006,0.011,-0.02
19608,0.936,-0.014,-9.419,-0.007,0.011,-0.02
19711,0.941,0.0,-9.428,-0.007,0.011,-0.02
19814,0.936,-0.01,-9.438,-0.007,0.011,-0.02
19917,0.934,-0.007,-9.433,-0.007,0.011,-0.02
20020,0.939,-0.012,-9.445,-0.007,0.011,-0.021
20123,0.934,-0.014,-9.433,-0.006,0.011,-0.02
20226,0.943,-0.007,-9.436,-0.006,0.011,-0.02
20329,0.939,-0.007,-9.452,-0.007,0.011,-0.02
20432,0.939,-0.007,-9.443,-0.007,0.011,-0.02
20535,0.943,0.002,-9.45,-0.006,0.011,-0.02
20638,0.955,-0.012,-9.443,-0.006,0.011,-0.02
20741,0.941,-0.01,-9.44,-0.006,0.011,-0.02
20844,0.943,-0.002,-9.431,-0.006,0.011,-0.021
20947,0.939,-0.014,-9.433,-0.007,0.011,-0.02
21050,0.939,-0.007,-9.44,-0.007,0.011,-0.021
21153,0.931,-0.007,-9.452,-0.007,0.011,-0.02
21256,0.927,-0.014,-9.436,-0.007,0.01,-0.02
21359,0.95,-0.014,-9.448,-0.007,0.011,-0.02
21462,0.939,-0.012,-9.44,-0.007,0.011,-0.02
21565,0.939,-0.007,-9.445,-0.007,0.011,-0.021
21668,0.943,-0.005,-9.44,-0.007,0.011,-0.02
21771,0.936,-0.007,-9.431,-0.006,0.011,-0.02
21874,0.939,-0.017,-9.438,-0.006,0.011,-0.02
21977,0.953,0.002,-9.448,-0.007,0.011,-0.021
22080,0.946,-0.005,-9.433,-0.007,0.011,-0.02
22183,0.936,-0.014,-9.433,-0.007,0.011,-0.02
22286,0.936,-0.007,-9.45,-0.007,0.011,-0.02
22389,0.943,-0.012,-9.433,-0.007,0.01,-0.02
22492,0.948,-0.01,-9.443,-0.007,0.011,-0.021
22595,0.939,-0.017,-9.436,-0.007,0.011,-0.019
22698,0.939,-0.007,-9.445,-0.006,0.011,-0.02
22801,0.946,-0.01,-9.45,-0.007,0.011,-0.02
22904,0.948,-0.007,-9.424,-0.007,0.011,-0.02
23007,0.943,-0.01,-9.436,-0.007,0.01,-0.02
23110,0.941,-0.007,-9.433,-0.007,0.011,-0.02
23213,0.934,-0.007,-9.426,-0.007,0.011,-0.02
23316,0.943,-0.012,-9.436,-0.007,0.011,-0.02
23419,0.936,-0.01,-9.448,-0.007,0.011,-0.02
23522,0.931,-0.007,-9.433,-0.007,0.011,-0.021
23625,0.941,-0.002,-9.436,-0.007,0.011,-0.02
23728,0.939,-0.007,-9.431,-0.007,0.011,-0.02
23831,0.934,-0.012,-9.438,-0.006,0.01,-0.02
23934,0.943,-0.007,-9.426,-0.007,0.01,-0.02
24037,0.941,-0.005,-9.443,-0.007,0.011,-0.02
24140,0.939,-0.019,-9.448,-0.007,0.011,-0.02
24243,0.943,-0.01,-9.438,-0.007,0.011,-0.019
24346,0.936,0.0,-9.431,-0.007,0.011,-0.02
24449,0.941,-0.005,-9.44,-0.007,0.011,-0.02
24552,0.948,-0.002,-9.433,-0.007,0.011,-0.02
24655,0.941,-0.01,-9.414,-0.007,0.011,-0.02
24758,0.943,-0.012,-9.436,-0.006,0.011,-0.021
24861,0.953,-0.005,-9.436,-0.007,0.011,-0.02
24964,0.927,-0.012,-9.445,-0.007,0.01,-0.02
25067,0.955,-0.005,-9.452,-0.007,0.01,-0.02
25170,0.934,-0.012,-9.431,-0.007,0.011,-0.02
25273,0.929,-0.01,-9.448,-0.007,0.011,-0.021
25376,0.946,-0.01,-9.431,-0.007,0.011,-0.02
25479,0.948,-0.014,-9.448,-0.007,0.011,-0.02
25582,0.934,-0.012,-9.428,-0.007,0.01,-0.02
25685,0.941,-0.01,-9.448,-0.007,0.011,-0.02
25788,0.931,-0.01,-9.44,-0.007,0.011,-0.02
25891,0.95,0.0,-9.44,-0.007,0.011,-0.021
25994,0.934,-0.012,-9.44,-0.007,0.011,-0.02
26097,0.936,-0.007,-9.436,-0.007,0.011,-0.021
26200,0.953,0.0,-9.433,-0.007,0.011,-0.02
26303,0.936,-0.012,-9.443,-0.007,0.011,-0.02
26406,0.939,-0.002,-9.436,-0.007,0.011,-0.021
26509,0.948,0.007,-9.445,-0.007,0.011,-0.021
26612,0.943,-0.017,-9.445,-0.007,0.011,-0.02
26715,0.946,-0.002,-9.426,-0.007,0.011,-0.02
26818,0.948,-0.01,-9.443,-0.007,0.011,-0.019
26921,0.931,-0.012,-9.428,-0.007,0.011,-0.02
27024,0.941,-0.007,-9.448,-0.007,0.011,-0.02
27127,0.948,-0.005,-9.433,-0.007,0.011,-0.02
27230,0.941,-0.007,-9.436,-0.007,0.011,-0.021
27333,0.958,-0.01,-9.455,-0.007,0.011,-0.02
27436,0.941,-0.007,-9.421,-0.007,0.011,-0.02
27539,0.936,-0.012,-9.438,-0.007,0.011,-0.02
27642,0.946,0.0,-9.424,-0.007,0.011,-0.02
27745,0.929,-0.007,-9.431,-0.007,0.011,-0.02
27848,0.943,-0.01,-9.433,-0.007,0.011,-0.021
27951,0.941,-0.014,-9.433,-0.007,0.011,-0.02
28054,0.936,-0.007,-9.431,-0.007,0.011,-0.02
28157,0.939,-0.017,-9.421,-0.007,0.011,-0.02
28260,0.941,-0.007,-9.431,-0.007,0.011,-0.021
28363,0.936,-0.01,-9.431,-0.007,0.011,-0.02
28466,0.941,-0.014,-9.431,-0.007,0.011,-0.02
28569,0.936,-0.012,-9.426,-0.007,0.011,-0.02
28672,0.929,-0.017,-9.44,-0.007,0.011,-0.021
28775,0.943,-0.007,-9.44,-0.007,0.011,-0.02
28878,0.943,-0.005,-9.426,-0.006,0.011,-0.02
28981,0.943,-0.002,-9.44,-0.007,0.011,-0.02
29084,0.929,-0.002,-9.438,-0.007,0.011,-0.02
29187,0.941,-0.01,-9.433,-0.007,0.011,-0.02
29290,0.948,-0.007,-9.419,-0.007,0.011,-0.021
29393,0.948,-0.01,-9.452,-0.007,0.011,-0.02
29496,0.943,-0.007,-9.436,-0.007,0.011,-0.021
29599,0.939,-0.005,-9.431,-0.007,0.01,-0.02
29702,0.946,-0.01,-9.436,-0.007,0.011,-0.02
29805,0.95,-0.007,-9.44,-0.007,0.011,-0.02
29908,0.943,-0.017,-9.448,-0.007,0.011,-0.02
30011,0.939,-0.012,-9.445,-0.007,0.011,-0.02
30114,0.955,-0.005,-9.44,-0.007,0.011,-0.021
30217,0.927,-0.007,-9.44,-0.007,0.011,-0.02
30320,0.941,-0.017,-9.443,-0.007,0.01,-0.02
30423,0.946,-0.014,-9.448,-0.007,0.01,-0.02
30526,0.946,-0.002,-9.431,-0.006,0.011,-0.02
30629,0.953,-0.014,-9.44,-0.006,0.01,-0.02
30732,0.939,-0.014,-9.45,-0.006,0.01,-0.02
30835,0.939,-0.017,-9.424,-0.007,0.011,-0.02
30938,0.953,0.0,-9.436,-0.007,0.011,-0.02
31041,0.941,-0.01,-9.426,-0.007,0.011,-0.02
31144,0.943,-0.017,-9.431,-0.007,0.011,-0.021
31247,0.946,-0.01,-9.431,-0.007,0.011,-0.021
31350,0.934,0.0,-9.438,-0.007,0.011,-0.02
31453,0.941,-0.017,-9.421,-0.007,0.011,-0.021
31556,0.95,0.0,-9.445,-0.006,0.011,-0.02
31659,0.936,-0.01,-9.421,-0.007,0.011,-0.02
31762,0.955,0.002,-9.428,-0.007,0.011,-0.021
31865,0.941,-0.007,-9.431,-0.007,0.011,-0.02
31968,0.936,-0.007,-9.424,-0.007,0.011,-0.02
32071,0.948,0.0,-9.45,-0.007,0.011,-0.021
32174,0.939,-0.01,-9.428,-0.007,0.011,-0.02
32277,0.946,-0.012,-9.426,-0.007,0.011,-0.02
32380,0.95,-0.007,-9.448,-0.007,0.011,-0.02
32483,0.934,-0.007,-9.445,-0.007,0.011,-0.021
32586,0.936,-0.017,-9.438,-0.007,0.011,-0.02
32689,0.948,-0.012,-9.436,-0.007,0.011,-0.02
32792,0.934,-0.005,-9.426,-0.007,0.011,-0.02
32895,0.955,-0.002,-9.428,-0.007,0.011,-0.021
32998,0.936,-0.017,-9.436,-0.007,0.011,-0.02
33101,0.946,0.005,-9.431,-0.007,0.011,-0.02
33204,0.939,-0.002,-9.421,-0.006,0.011,-0.021
33307,0.934,-0.012,-9.44,-0.007,0.011,-0.02
33410,0.941,-0.014,-9.431,-0.007,0.011,-0.021
33513,0.946,-0.005,-9.438,-0.007,0.011,-0.02
33616,0.922,-0.012,-9.428,-0.007,0.011,-0.021
33719,0.943,-0.007,-9.431,-0.007,0.01,-0.02
33822,0.95,0.002,-9.445,-0.007,0.011,-0.021
33925,0.948,-0.005,-9.445,-0.007,0.011,-0.02
34028,0.943,0.0,-9.436,-0.007,0.011,-0.02
34131,0.936,-0.01,-9.448,-0.007,0.011,-0.02
34234,0.941,-0.002,-9.428,-0.007,0.011,-0.019
34337,0.948,-0.005,-9.438,-0.007,0.011,-0.02
34440,0.939,-0.002,-9.443,-0.007,0.01,-0.02
34543,0.943,-0.012,-9.421,-0.007,0.011,-0.02
34646,0.943,-0.002,-9.44,-0.007,0.011,-0.02
34749,0.939,-0.012,-9.436,-0.007,0.011,-0.02
34852,0.948,-0.012,-9.44,-0.007,0.011,-0.02
34955,0.941,-0.007,-9.452,-0.007,0.011,-0.02
35058,0.939,-0.007,-9.433,-0.007,0.011,-0.021
35161,0.948,-0.005,-9.433,-0.007,0.011,-0.02
35264,0.929,-0.012,-9.428,-0.007,0.011,-0.02
35367,0.948,-0.002,-9.424,-0.007,0.011,-0.02
35470,0.941,-0.007,-9.436,-0.007,0.011,-0.021
35573,0.929,-0.005,-9.44,-0.007,0.011,-0.021
35676,0.931,-0.017,-9.445,-0.007,0.01,-0.021
35779,0.924,-0.019,-9.448,-0.007,0.011,-0.021
35882,0.941,-0.012,-9.431,-0.007,0.011,-0.021
35985,0.95,-0.002,-9.433,-0.007,0.011,-0.02
36088,0.941,-0.01,-9.433,-0.007,0.011,-0.021
36191,0.934,-0.019,-9.428,-0.007,0.011,-0.02
36294,0.946,0.0,-9.438,-0.007,0.011,-0.02
36397,0.931,0.0,-9.452,-0.006,0.011,-0.02
36500,0.948,-0.005,-9.436,-0.007,0.011,-0.021
36603,0.953,-0.005,-9.445,-0.007,0.011,-0.02
36706,0.939,-0.007,-9.44,-0.007,0.011,-0.02
36809,0.936,-0.005,-9.443,-0.007,0.011,-0.02
36912,0.948,-0.012,-9.436,-0.006,0.011,-0.02
37015,0.941,-0.007,-9.436,-0.007,0.011,-0.02
37118,0.939,-0.01,-9.448,-0.007,0.011,-0.02
37221,0.936,-0.005,-9.424,-0.007,0.011,-0.02
37324,0.941,-0.007,-9.436,-0.007,0.011,-0.02
37427,0.941,-0.005,-9.443,-0.007,0.011,-0.02
37530,0.936,0.0,-9.431,-0.006,0.011,-0.02
37633,0.948,-0.01,-9.438,-0.007,0.011,-0.021
37736,0.943,-0.01,-9.445,-0.007,0.011,-0.021
37839,0.936,-0.005,-9.448,-0.007,0.011,-0.02
37942,0.948,-0.007,-9.436,-0.006,0.011,-0.021
38045,0.936,-0.01,-9.431,-0.006,0.011,-0.02
38148,0.941,-0.007,-9.424,-0.007,0.011,-0.021
38251,0.943,-0.012,-9.433,-0.007,0.01,-0.021
38354,0.948,0.002,-9.443,-0.007,0.011,-0.02
38457,0.941,-0.007,-9.445,-0.007,0.011,-0.02
38560,0.95,-0.01,-9.443,-0.007,0.011,-0.02
38663,0.941,-0.002,-9.433,-0.007,0.011,-0.02
38766,0.946,-0.007,-9.44,-0.007,0.011,-0.021
38869,0.939,-0.005,-9.428,-0.007,0.011,-0.02
38972,0.948,-0.01,-9.445,-0.006,0.011,-0.02
39075,0.943,-0.012,-9.445,-0.007,0.011,-0.02
39178,0.948,-0.01,-9.438,-0.007,0.011,-0.02
39281,0.936,-0.014,-9.428,-0.007,0.011,-0.021
39384,0.953,-0.014,-9.436,-0.007,0.011,-0.02
39487,0.936,-0.007,-9.433,-0.007,0.011,-0.02
39590,0.948,-0.007,-9.443,-0.007,0.011,-0.02
39693,0.943,-0.014,-9.443,-0.007,0.011,-0.02
39796,0.939,-0.005,-9.426,-0.007,0.011,-0.02
39899,0.948,-0.012,-9.438,-0.007,0.011,-0.021
40002,0.946,0.005,-9.45,-0.007,0.011,-0.021
40105,0.941,0.0,-9.44,-0.006,0.011,-0.021
40208,0.941,-0.005,-9.438,-0.007,0.011,-0.02
40311,0.943,-0.012,-9.438,-0.006,0.011,-0.02
40414,0.943,-0.002,-9.436,-0.007,0.011,-0.02
40517,0.95,-0.014,-9.436,-0.007,0.011,-0.02
40620,0.936,-0.007,-9.436,-0.007,0.011,-0.02
40723,0.936,-0.01,-9.445,-0.007,0.011,-0.02
40826,0.948,-0.005,-9.44,-0.007,0.01,-0.019
40929,0.939,-0.014,-9.431,-0.006,0.011,-0.02
41032,0.948,-0.002,-9.433,-0.007,0.011,-0.02
41135,0.939,-0.007,-9.44,-0.007,0.011,-0.02
41238,0.939,-0.007,-9.436,-0.007,0.011,-0.02
41341,0.953,0.005,-9.44,-0.007,0.011,-0.02
41444,0.936,-0.005,-9.428,-0.007,0.011,-0.02
41547,0.943,-0.014,-9.436,-0.007,0.011,-0.021
41650,0.95,0.0,-9.443,-0.007,0.01,-0.02
41753,0.936,-0.012,-9.431,-0.007,0.011,-0.02
41856,0.946,-0.012,-9.436,-0.007,0.011,-0.02
41959,0.943,-0.012,-9.443,-0.007,0.01,-0.02
42062,0.939,-0.01,-9.433,-0.007,0.011,-0.02
42165,0.939,0.002,-9.45,-0.007,0.011,-0.02
42268,0.939,-0.005,-9.443,-0.007,0.011,-0.02
42371,0.941,-0.014,-9.433,-0.007,0.011,-0.02
42474,0.95,-0.007,-9.448,-0.007,0.011,-0.02
42577,0.943,-0.007,-9.428,-0.007,0.011,-0.02
42680,0.939,0.0,-9.438,-0.007,0.011,-0.021
42783,0.948,-0.01,-9.436,-0.007,0.011,-0.02
42886,0.936,-0.007,-9.431,-0.006,0.011,-0.02
42989,0.948,-0.007,-9.433,-0.007,0.011,-0.02
43092,0.941,-0.01,-9.436,-0.007,0.011,-0.02
43195,0.953,-0.014,-9.452,-0.007,0.011,-0.02
43298,0.943,-0.002,-9.45,-0.007,0.011,-0.02
43401,0.931,-0.007,-9.428,-0.006,0.011,-0.02
43504,0.931,-0.007,-9.452,-0.007,0.01,-0.02
43607,0.941,-0.002,-9.459,-0.007,0.011,-0.021
43710,0.939,-0.005,-9.436,-0.007,0.011,-0.021
43813,0.941,-0.007,-9.448,-0.006,0.011,-0.021
43916,0.941,-0.014,-9.445,-0.007,0.011,-0.021
44019,0.943,-0.012,-9.448,-0.007,0.011,-0.02
44122,0.946,-0.012,-9.45,-0.006,0.011,-0.021
44225,0.948,-0.007,-9.426,-0.006,0.011,-0.02
44328,0.936,-0.007,-9.448,-0.007,0.011,-0.02
44431,0.948,-0.01,-9.436,-0.007,0.011,-0.02
44534,0.946,-0.01,-9.44,-0.007,0.01,-0.02
44637,0.943,-0.012,-9.433,-0.007,0.011,-0.021
44740,0.948,-0.01,-9.44,-0.007,0.011,-0.02
44843,0.939,-0.002,-9.436,-0.006,0.011,-0.02
44946,0.941,-0.005,-9.457,-0.007,0.011,-0.02
45049,0.943,-0.002,-9.44,-0.007,0.011,-0.021
45152,0.936,-0.012,-9.44,-0.007,0.011,-0.02
45255,0.946,-0.01,-9.438,-0.007,0.011,-0.02
45358,0.941,-0.005,-9.438,-0.007,0.011,-0.02
45461,0.939,-0.007,-9.431,-0.007,0.011,-0.02
45564,0.943,-0.012,-9.44,-0.007,0.011,-0.02
45667,0.946,-0.002,-9.433,-0.007,0.011,-0.02
45770,0.953,-0.017,-9.431,-0.007,0.011,-0.02
45873,0.958,0.002,-9.445,-0.007,0.011,-0.02
45976,0.948,-0.005,-9.436,-0.007,0.011,-0.02
46079,0.941,-0.019,-9.445,-0.007,0.011,-0.02
46182,0.946,-0.005,-9.44,-0.007,0.011,-0.02
46285,0.941,-0.012,-9.445,-0.007,0.011,-0.02
46388,0.95,-0.012,-9.436,-0.007,0.01,-0.02
46491,0.95,-0.01,-9.443,-0.007,0.011,-0.02
46594,0.936,0.0,-9.431,-0.007,0.011,-0.02
46697,0.941,-0.007,-9.436,-0.007,0.011,-0.02
46800,0.946,-0.01,-9.436,-0.007,0.011,-0.02
46903,0.939,-0.01,-9.424,-0.007,0.011,-0.02
47006,0.946,-0.012,-9.45,-0.007,0.011,-0.02
47109,0.936,-0.01,-9.424,-0.007,0.011,-0.02
47212,0.955,-0.005,-9.45,-0.007,0.011,-0.02
47315,0.941,0.005,-9.45,-0.007,0.01,-0.02
47418,0.931,-0.014,-9.438,-0.007,0.011,-0.02
47521,0.943,-0.007,-9.436,-0.007,0.011,-0.021
47624,0.948,0.005,-9.44,-0.007,0.011,-0.02
47727,0.946,-0.017,-9.433,-0.007,0.011,-0.02
47830,0.946,-0.005,-9.438,-0.007,0.011,-0.02
47933,0.931,-0.005,-9.445,-0.007,0.011,-0.02
48036,0.958,-0.019,-9.45,-0.007,0.011,-0.02
48139,0.941,-0.007,-9.45,-0.006,0.011,-0.02
48242,0.939,-0.005,-9.436,-0.007,0.011,-0.02
48345,0.948,-0.005,-9.438,-0.007,0.011,-0.021
48448,0.939,-0.014,-9.436,-0.006,0.011,-0.02
48551,0.939,-0.005,-9.443,-0.007,0.011,-0.02
48654,0.95,-0.002,-9.443,-0.007,0.011,-0.02
48757,0.939,-0.012,-9.445,-0.006,0.01,-0.02
48860,0.936,-0.012,-9.433,-0.007,0.011,-0.021
48963,0.927,-0.014,-9.419,-0.006,0.011,-0.021
49066,0.934,0.0,-9.443,-0.007,0.01,-0.02
49169,0.953,0.002,-9.45,-0.007,0.011,-0.02
49272,0.943,-0.007,-9.438,-0.007,0.011,-0.02
49375,0.934,-0.002,-9.431,-0.007,0.011,-0.02
49478,0.934,-0.01,-9.448,-0.007,0.011,-0.021
49581,0.929,-0.007,-9.443,-0.007,0.011,-0.02
49684,0.941,-0.014,-9.44,-0.007,0.011,-0.02
49787,0.946,-0.007,-9.443,-0.007,0.011,-0.02
49890,0.929,-0.01,-9.445,-0.006,0.01,-0.02
49993,0.936,-0.017,-9.448,-0.007,0.011,-0.02
50096,0.943,-0.007,-9.445,-0.007,0.01,-0.02
50199,0.931,-0.01,-9.436,-0.007,0.01,-0.02
50302,0.943,-0.012,-9.443,-0.007,0.01,-0.021
50405,0.946,0.002,-9.448,-0.006,0.011,-0.02
50508,0.929,-0.014,-9.438,-0.007,0.011,-0.02
50611,0.948,-0.002,-9.448,-0.007,0.011,-0.02
50714,0.948,-0.014,-9.45,-0.007,0.011,-0.02
50817,0.929,-0.014,-9.431,-0.007,0.011,-0.02
50920,0.946,-0.012,-9.452,-0.007,0.011,-0.02
51023,0.936,-0.005,-9.419,-0.007,0.011,-0.021
51126,0.939,-0.012,-9.443,-0.007,0.011,-0.02
51229,0.939,-0.002,-9.44,-0.007,0.011,-0.02
51332,0.936,-0.007,-9.428,-0.007,0.011,-0.02
51435,0.955,-0.002,-9.436,-0.007,0.011,-0.02
51538,0.939,-0.012,-9.436,-0.006,0.01,-0.02
51641,0.939,-0.002,-9.438,-0.007,0.011,-0.021
51744,0.955,-0.017,-9.455,-0.007,0.011,-0.021
51847,0.936,-0.005,-9.433,-0.007,0.011,-0.02
51950,0.941,-0.017,-9.431,-0.007,0.01,-0.02
52053,0.948,-0.005,-9.44,-0.007,0.01,-0.02
52156,0.941,-0.002,-9.443,-0.007,0.011,-0.02
52259,0.941,0.0,-9.448,-0.007,0.011,-0.02
52362,0.939,-0.002,-9.455,-0.007,0.011,-0.02
52465,0.941,0.0,-9.431,-0.007,0.011,-0.02
52568,0.943,-0.007,-9.445,-0.007,0.011,-0.021
52671,0.943,0.0,-9.436,-0.007,0.01,-0.02
52774,0.946,-0.017,-9.452,-0.007,0.011,-0.02
52877,0.936,-0.005,-9.426,-0.007,0.011,-0.02
52980,0.946,-0.01,-9.436,-0.007,0.011,-0.02
53083,0.953,-0.002,-9.448,-0.007,0.011,-0.02
53186,0.941,0.0,-9.436,-0.006,0.011,-0.02
53289,0.941,-0.007,-9.436,-0.006,0.011,-0.02
53392,0.948,-0.012,-9.436,-0.007,0.011,-0.02
53495,0.939,-0.017,-9.45,-0.007,0.011,-0.02
53598,0.934,-0.019,-9.448,-0.007,0.011,-0.021
53701,0.946,-0.012,-9.455,-0.007,0.011,-0.02
53804,0.939,-0.017,-9.443,-0.007,0.011,-0.019
53907,0.946,-0.017,-9.431,-0.007,0.011,-0.02
54010,0.946,-0.005,-9.431,-0.006,0.011,-0.02
54113,0.936,-0.01,-9.44,-0.006,0.01,-0.02
54216,0.943,-0.005,-9.44,-0.007,0.011,-0.02
54319,0.95,-0.007,-9.436,-0.007,0.011,-0.02
54422,0.939,-0.002,-9.436,-0.007,0.01,-0.02
54525,0.95,-0.007,-9.443,-0.007,0.011,-0.02
54628,0.927,-0.005,-9.433,-0.006,0.011,-0.02
54731,0.934,-0.002,-9.431,-0.007,0.011,-0.02
54834,0.95,-0.01,-9.443,-0.007,0.011,-0.02
54937,0.943,-0.01,-9.448,-0.007,0.011,-0.021
55040,0.939,-0.017,-9.433,-0.007,0.011,-0.021
55143,0.943,-0.005,-9.433,-0.007,0.011,-0.02
55246,0.936,-0.01,-9.431,-0.007,0.011,-0.02
55349,0.946,-0.002,-9.438,-0.007,0.011,-0.021
55452,0.939,-0.014,-9.438,-0.007,0.011,-0.02
55555,0.948,-0.005,-9.438,-0.007,0.011,-0.02
55658,0.943,-0.005,-9.436,-0.007,0.011,-0.02
55761,0.929,-0.007,-9.438,-0.007,0.011,-0.02
55864,0.941,-0.01,-9.448,-0.007,0.011,-0.021
55967,0.95,-0.012,-9.44,-0.007,0.011,-0.021
56070,0.936,-0.007,-9.464,-0.007,0.011,-0.02
56173,0.941,-0.012,-9.433,-0.007,0.011,-0.02
56276,0.946,-0.017,-9.421,-0.007,0.011,-0.02
56379,0.941,-0.007,-9.44,-0.006,0.011,-0.021
56482,0.946,-0.002,-9.428,-0.007,0.011,-0.021
56585,0.953,-0.007,-9.443,-0.007,0.011,-0.02
56688,0.934,-0.01,-9.426,-0.007,0.011,-0.02
56791,0.95,0.0,-9.436,-0.006,0.011,-0.02
56894,0.934,-0.007,-9.431,-0.007,0.011,-0.021
56997,0.936,-0.019,-9.445,-0.007,0.011,-0.02
57100,0.946,-0.014,-9.448,-0.007,0.011,-0.02
57203,0.936,-0.014,-9.448,-0.006,0.011,-0.02
57306,0.958,-0.012,-9.433,-0.006,0.011,-0.02
57409,0.946,-0.01,-9.45,-0.007,0.011,-0.02
57512,0.939,-0.002,-9.426,-0.007,0.011,-0.02
57615,0.955,-0.002,-9.459,-0.007,0.011,-0.021
57718,0.939,-0.007,-9.419,-0.006,0.011,-0.02
57821,0.941,-0.007,-9.421,-0.007,0.011,-0.02
57924,0.948,-0.012,-9.445,-0.007,0.011,-0.02
58027,0.936,-0.01,-9.438,-0.007,0.011,-0.02
58130,0.943,0.002,-9.431,-0.007,0.01,-0.021
58233,0.934,-0.007,-9.457,-0.007,0.011,-0.02
58336,0.943,-0.012,-9.433,-0.007,0.011,-0.02
58439,0.939,-0.002,-9.431,-0.007,0.011,-0.021
58542,0.941,0.002,-9.443,-0.007,0.011,-0.02
58645,0.939,-0.002,-9.445,-0.007,0.011,-0.02
58748,0.955,-0.014,-9.433,-0.007,0.011,-0.021
58851,0.934,-0.01,-9.443,-0.007,0.011,-0.02
58954,0.939,-0.012,-9.44,-0.006,0.011,-0.021
59057,0.95,-0.01,-9.438,-0.007,0.011,-0.02
59160,0.941,-0.007,-9.438,-0.007,0.011,-0.02
59263,0.943,-0.007,-9.44,-0.007,0.011,-0.02
59366,0.936,-0.01,-9.455,-0.007,0.011,-0.021
59469,0.948,-0.01,-9.431,-0.007,0.011,-0.02
59572,0.943,-0.012,-9.44,-0.007,0.011,-0.02
59675,0.929,-0.005,-9.436,-0.007,0.011,-0.02
59778,0.941,-0.007,-9.428,-0.007,0.011,-0.02
59881,0.955,-0.012,-9.438,-0.007,0.011,-0.021
59984,0.929,-0.007,-9.44,-0.006,0.011,-0.02
60087,0.939,-0.014,-9.436,-0.007,0.011,-0.02
60190,0.941,-0.014,-9.438,-0.007,0.011,-0.021
60293,0.943,-0.014,-9.45,-0.007,0.01,-0.02
60396,0.948,-0.002,-9.431,-0.007,0.011,-0.021
60499,0.941,0.0,-9.438,-0.007,0.011,-0.02
60602,0.934,-0.014,-9.431,-0.006,0.011,-0.02
60705,0.948,-0.01,-9.459,-0.007,0.011,-0.02
60808,0.939,-0.005,-9.445,-0.006,0.011,-0.02
60911,0.939,-0.01,-9.445,-0.007,0.011,-0.02
61014,0.879,0.005,-9.404,0.01,0.307,-0.015
61117,1.597,-0.041,-9.385,0.013,0.326,-0.014
61220,1.566,-0.045,-9.345,-0.006,0.022,-0.02
61323,1.544,-0.055,-9.357,-0.006,0.011,-0.02
61426,1.535,-0.05,-9.354,-0.007,0.011,-0.02
61529,1.554,-0.045,-9.349,-0.006,0.011,-0.021
61632,1.554,-0.043,-9.361,-0.007,0.011,-0.02
61735,1.542,-0.055,-9.352,-0.007,0.011,-0.02
61838,1.544,-0.048,-9.349,-0.007,0.011,-0.021
61941,1.544,-0.048,-9.359,-0.007,0.011,-0.02
62044,1.554,-0.045,-9.345,-0.007,0.011,-0.02
62147,1.542,-0.045,-9.369,-0.007,0.01,-0.021
62250,1.547,-0.048,-9.345,-0.007,0.011,-0.021
62353,1.544,-0.041,-9.357,-0.007,0.011,-0.021
62456,1.547,-0.055,-9.361,-0.007,0.011,-0.02
62559,1.551,-0.048,-9.354,-0.007,0.011,-0.021
62662,1.554,-0.05,-9.364,-0.007,0.011,-0.02
62765,1.549,-0.048,-9.354,-0.007,0.011,-0.02
62868,1.549,-0.05,-9.349,-0.007,0.011,-0.021
62971,1.551,-0.041,-9.352,-0.007,0.011,-0.02
63074,1.551,-0.045,-9.352,-0.006,0.011,-0.02
63177,1.549,-0.045,-9.354,-0.007,0.011,-0.02
63280,1.556,-0.038,-9.359,-0.007,0.011,-0.02
63383,1.544,-0.045,-9.357,-0.007,0.011,-0.02
63486,1.544,-0.06,-9.34,-0.006,0.011,-0.021
63589,1.549,-0.048,-9.369,-0.007,0.011,-0.02
63692,1.551,-0.055,-9.359,-0.007,0.011,-0.02
63795,1.554,-0.043,-9.359,-0.007,0.011,-0.021
63898,1.544,-0.048,-9.357,-0.007,0.011,-0.02
64001,1.547,-0.045,-9.349,-0.007,0.011,-0.02
64104,1.561,-0.053,-9.359,-0.007,0.011,-0.02
64207,1.547,-0.05,-9.359,-0.007,0.011,-0.02
64310,1.549,-0.048,-9.357,-0.007,0.011,-0.021
64413,1.549,-0.05,-9.357,-0.007,0.011,-0.02
64516,1.554,-0.055,-9.347,-0.007,0.011,-0.02
64619,1.549,-0.041,-9.366,-0.007,0.011,-0.02
64722,1.554,-0.041,-9.371,-0.007,0.011,-0.02
64825,1.547,-0.036,-9.352,-0.007,0.011,-0.02
64928,1.549,-0.043,-9.359,-0.007,0.011,-0.02
65031,1.547,-0.041,-9.345,-0.007,0.01,-0.021
65134,1.554,-0.048,-9.342,-0.007,0.011,-0.021
65237,1.554,-0.05,-9.364,-0.007,0.011,-0.02
65340,1.544,-0.05,-9.352,-0.007,0.011,-0.021
65443,1.554,-0.041,-9.359,-0.006,0.011,-0.021
65546,1.554,-0.045,-9.349,-0.007,0.011,-0.02
65649,1.549,-0.036,-9.357,-0.006,0.011,-0.02
65752,1.554,-0.05,-9.361,-0.007,0.011,-0.021
65855,1.547,-0.045,-9.352,-0.007,0.011,-0.02
65958,1.544,-0.055,-9.361,-0.007,0.011,-0.02
66061,1.556,-0.05,-9.349,-0.007,0.011,-0.021
66164,1.549,-0.05,-9.349,-0.007,0.011,-0.02
66267,1.554,-0.045,-9.349,-0.007,0.011,-0.021
66370,1.547,-0.05,-9.359,-0.006,0.011,-0.02
66473,1.542,-0.043,-9.364,-0.007,0.011,-0.02
66576,1.556,-0.038,-9.352,-0.007,0.011,-0.02
66679,1.554,-0.045,-9.347,-0.007,0.011,-0.02
66782,1.544,-0.048,-9.361,-0.007,0.011,-0.02
66885,1.554,-0.048,-9.361,-0.007,0.011,-0.021
66988,1.547,-0.045,-9.342,-0.006,0.011,-0.02
67091,1.556,-0.045,-9.345,-0.007,0.011,-0.02
67194,1.551,-0.038,-9.349,-0.007,0.011,-0.02
67297,1.542,-0.045,-9.352,-0.007,0.011,-0.02
67400,1.544,-0.055,-9.364,-0.006,0.011,-0.02
67503,1.547,-0.045,-9.366,-0.007,0.011,-0.02
67606,1.556,-0.053,-9.361,-0.007,0.011,-0.02
67709,1.549,-0.048,-9.352,-0.007,0.011,-0.02
67812,1.554,-0.038,-9.366,-0.007,0.011,-0.02
67915,1.554,-0.045,-9.342,-0.007,0.011,-0.02
68018,1.554,-0.048,-9.364,-0.007,0.011,-0.02
68121,1.547,-0.048,-9.354,-0.006,0.011,-0.02
68224,1.556,-0.041,-9.352,-0.007,0.011,-0.021
68327,1.551,-0.045,-9.361,-0.007,0.011,-0.02
68430,1.551,-0.045,-9.337,-0.007,0.011,-0.021
68533,1.542,-0.038,-9.359,-0.007,0.011,-0.02
68636,1.551,-0.043,-9.361,-0.007,0.011,-0.02
68739,1.549,-0.053,-9.347,-0.006,0.011,-0.021
68842,1.556,-0.045,-9.364,-0.006,0.011,-0.02
68945,1.544,-0.05,-9.34,-0.007,0.011,-0.02
69048,1.549,-0.062,-9.354,-0.007,0.011,-0.02
69151,1.549,-0.048,-9.359,-0.007,0.011,-0.02
69254,1.549,-0.043,-9.357,-0.006,0.011,-0.02
69357,1.556,-0.043,-9.361,-0.007,0.011,-0.02
69460,1.551,-0.043,-9.345,-0.006,0.011,-0.02
69563,1.542,-0.05,-9.352,-0.007,0.011,-0.02
69666,1.549,-0.045,-9.345,-0.006,0.011,-0.021
69769,1.547,-0.053,-9.359,-0.007,0.011,-0.02
69872,1.554,-0.045,-9.347,-0.006,0.011,-0.021
69975,1.556,-0.048,-9.349,-0.007,0.011,-0.021
70078,1.551,-0.048,-9.347,-0.007,0.011,-0.02
70181,1.547,-0.05,-9.357,-0.007,0.011,-0.021
70284,1.551,-0.043,-9.352,-0.007,0.011,-0.021
70387,1.539,-0.034,-9.357,-0.007,0.011,-0.02
70490,1.568,-0.045,-9.349,-0.007,0.011,-0.021
70593,1.549,-0.043,-9.359,-0.007,0.011,-0.02
70696,1.542,-0.043,-9.357,-0.007,0.011,-0.02
70799,1.554,-0.041,-9.352,-0.007,0.011,-0.021
70902,1.542,-0.05,-9.359,-0.007,0.011,-0.02
71005,1.542,-0.055,-9.349,-0.007,0.011,-0.02
71108,1.547,-0.043,-9.366,-0.006,0.011,-0.021
71211,1.537,-0.053,-9.354,-0.007,0.011,-0.02
71314,1.554,-0.043,-9.354,-0.007,0.011,-0.021
71417,1.554,-0.045,-9.369,-0.007,0.011,-0.02
71520,1.547,-0.045,-9.354,-0.007,0.011,-0.02
71623,1.563,-0.05,-9.361,-0.007,0.011,-0.021
71726,1.559,-0.05,-9.349,-0.006,0.011,-0.02
71829,1.549,-0.05,-9.359,-0.007,0.01,-0.02
71932,1.554,-0.043,-9.345,-0.007,0.011,-0.02
72035,1.544,-0.05,-9.354,-0.007,0.011,-0.021
72138,1.556,-0.048,-9.361,-0.006,0.011,-0.02
72241,1.563,-0.055,-9.371,-0.007,0.011,-0.02
72344,1.539,-0.05,-9.359,-0.006,0.011,-0.02
72447,1.549,-0.043,-9.349,-0.007,0.011,-0.021
72550,1.551,-0.038,-9.361,-0.006,0.011,-0.02
72653,1.544,-0.06,-9.361,-0.006,0.011,-0.02
72756,1.556,-0.053,-9.361,-0.007,0.011,-0.021
72859,1.556,-0.057,-9.342,-0.007,0.011,-0.021
72962,1.549,-0.055,-9.366,-0.007,0.011,-0.02
73065,1.556,-0.043,-9.345,-0.007,0.011,-0.021
73168,1.537,-0.055,-9.359,-0.007,0.01,-0.02
73271,1.544,-0.048,-9.361,-0.007,0.011,-0.02
73374,1.544,-0.034,-9.364,-0.007,0.011,-0.02
73477,1.554,-0.053,-9.347,-0.007,0.011,-0.02
73580,1.549,-0.043,-9.366,-0.007,0.011,-0.021
73683,1.551,-0.043,-9.371,-0.006,0.01,-0.02
73786,1.556,-0.038,-9.349,-0.007,0.011,-0.021
73889,1.561,-0.048,-9.352,-0.007,0.011,-0.02
73992,1.542,-0.045,-9.34,-0.006,0.011,-0.02
74095,1.551,-0.043,-9.361,-0.007,0.011,-0.021
74198,1.556,-0.036,-9.359,-0.007,0.011,-0.021
74301,1.544,-0.041,-9.361,-0.007,0.011,-0.02
74404,1.544,-0.048,-9.366,-0.007,0.011,-0.02
74507,1.549,-0.048,-9.364,-0.006,0.011,-0.02
74610,1.544,-0.055,-9.352,-0.007,0.011,-0.021
74713,1.561,-0.038,-9.349,-0.007,0.011,-0.02
74816,1.544,-0.055,-9.361,-0.007,0.011,-0.02
74919,1.549,-0.053,-9.359,-0.007,0.011,-0.02
75022,1.559,-0.041,-9.364,-0.007,0.011,-0.02
75125,1.551,-0.043,-9.352,-0.006,0.011,-0.02
75228,1.549,-0.05,-9.361,-0.007,0.011,-0.02
75331,1.547,-0.036,-9.349,-0.007,0.012,-0.02
75434,1.549,-0.055,-9.357,-0.007,0.011,-0.021
75537,1.561,-0.05,-9.361,-0.006,0.011,-0.021
75640,1.547,-0.038,-9.373,-0.007,0.011,-0.02
75743,1.547,-0.043,-9.342,-0.007,0.011,-0.02
75846,1.544,-0.043,-9.347,-0.007,0.011,-0.02
75949,1.544,-0.045,-9.354,-0.007,0.011,-0.02
76052,1.547,-0.043,-9.342,-0.007,0.011,-0.02
76155,1.561,-0.05,-9.347,-0.007,0.01,-0.02
76258,1.544,-0.048,-9.349,-0.006,0.011,-0.02
76361,1.551,-0.053,-9.349,-0.007,0.011,-0.021
76464,1.559,-0.041,-9.354,-0.007,0.011,-0.02
76567,1.549,-0.053,-9.335,-0.007,0.011,-0.02
76670,1.547,-0.041,-9.342,-0.007,0.011,-0.02
76773,1.556,-0.048,-9.359,-0.007,0.011,-0.02
76876,1.566,-0.041,-9.373,-0.007,0.011,-0.02
76979,1.542,-0.045,-9.359,-0.007,0.011,-0.02
77082,1.537,-0.038,-9.349,-0.006,0.011,-0.02
77185,1.554,-0.057,-9.345,-0.007,0.011,-0.021
77288,1.559,-0.043,-9.352,-0.006,0.011,-0.021
77391,1.535,-0.041,-9.34,-0.006,0.011,-0.021
77494,1.544,-0.053,-9.357,-0.007,0.011,-0.02
77597,1.547,-0.05,-9.352,-0.006,0.011,-0.02
77700,1.549,-0.048,-9.359,-0.007,0.011,-0.02
77803,1.556,-0.053,-9.349,-0.007,0.011,-0.02
77906,1.547,-0.041,-9.354,-0.007,0.011,-0.02
78009,1.549,-0.048,-9.345,-0.007,0.011,-0.02
78112,1.551,-0.057,-9.357,-0.007,0.011,-0.02
78215,1.539,-0.05,-9.359,-0.007,0.011,-0.02
78318,1.547,-0.045,-9.349,-0.007,0.011,-0.02
78421,1.544,-0.043,-9.354,-0.007,0.011,-0.02
78524,1.554,-0.048,-9.345,-0.007,0.011,-0.02
78627,1.556,-0.043,-9.352,-0.007,0.011,-0.02
78730,1.542,-0.048,-9.349,-0.007,0.011,-0.02
78833,1.542,-0.045,-9.352,-0.007,0.011,-0.021
78936,1.556,-0.048,-9.347,-0.007,0.011,-0.021
79039,1.542,-0.048,-9.354,-0.006,0.011,-0.02
79142,1.556,-0.048,-9.357,-0.007,0.011,-0.02
79245,1.551,-0.036,-9.337,-0.007,0.011,-0.021
79348,1.547,-0.043,-9.361,-0.007,0.011,-0.021
79451,1.551,-0.048,-9.359,-0.007,0.011,-0.02
79554,1.547,-0.043,-9.357,-0.007,0.011,-0.02
79657,1.544,-0.043,-9.366,-0.007,0.011,-0.021
79760,1.556,-0.045,-9.371,-0.007,0.011,-0.021
79863,1.547,-0.053,-9.366,-0.007,0.011,-0.02
79966,1.547,-0.041,-9.357,-0.007,0.011,-0.02
80069,1.549,-0.045,-9.359,-0.007,0.011,-0.02
80172,1.547,-0.043,-9.349,-0.006,0.011,-0.02
80275,1.551,-0.048,-9.354,-0.007,0.011,-0.021
80378,1.554,-0.045,-9.335,-0.007,0.011,-0.021
80481,1.556,-0.048,-9.347,-0.006,0.011,-0.021
80584,1.551,-0.053,-9.352,-0.007,0.011,-0.02
80687,1.551,-0.041,-9.337,-0.007,0.011,-0.02
80790,1.542,-0.053,-9.354,-0.007,0.011,-0.02
80893,1.559,-0.045,-9.349,-0.007,0.011,-0.02
80996,1.551,-0.048,-9.359,-0.007,0.01,-0.02
81099,1.551,-0.053,-9.366,-0.007,0.011,-0.021
81202,1.549,-0.031,-9.361,-0.007,0.011,-0.02
81305,1.537,-0.041,-9.357,-0.007,0.011,-0.02
81408,1.544,-0.038,-9.354,-0.007,0.011,-0.02
81511,1.544,-0.038,-9.349,-0.007,0.011,-0.02
81614,1.544,-0.055,-9.369,-0.007,0.011,-0.021
81717,1.556,-0.036,-9.359,-0.006,0.011,-0.02
81820,1.549,-0.038,-9.352,-0.007,0.011,-0.02
81923,1.542,-0.053,-9.349,-0.007,0.011,-0.021
82026,1.544,-0.041,-9.371,-0.007,0.011,-0.02
82129,1.549,-0.045,-9.342,-0.007,0.011,-0.02
82232,1.549,-0.055,-9.347,-0.007,0.011,-0.02
82335,1.551,-0.053,-9.366,-0.007,0.011,-0.02
82438,1.551,-0.053,-9.354,-0.007,0.011,-0.02
82541,1.551,-0.05,-9.366,-0.007,0.011,-0.02
82644,1.547,-0.045,-9.337,-0.007,0.01,-0.02
82747,1.554,-0.048,-9.345,-0.007,0.011,-0.02
82850,1.554,-0.045,-9.357,-0.007,0.011,-0.02
82953,1.537,-0.05,-9.354,-0.007,0.011,-0.02
83056,1.544,-0.05,-9.347,-0.007,0.011,-0.02
83159,1.547,-0.036,-9.345,-0.007,0.01,-0.021
83262,1.547,-0.053,-9.335,-0.007,0.011,-0.021
83365,1.551,-0.048,-9.357,-0.007,0.011,-0.021
83468,1.566,-0.045,-9.359,-0.007,0.01,-0.02
83571,1.547,-0.05,-9.359,-0.007,0.011,-0.02
83674,1.544,-0.043,-9.371,-0.007,0.01,-0.02
83777,1.542,-0.045,-9.366,-0.007,0.011,-0.02
83880,1.544,-0.043,-9.357,-0.007,0.011,-0.021
83983,1.544,-0.053,-9.357,-0.007,0.011,-0.02
84086,1.547,-0.055,-9.359,-0.007,0.011,-0.02
84189,1.551,-0.038,-9.357,-0.006,0.011,-0.02
84292,1.561,-0.043,-9.335,-0.007,0.011,-0.02
84395,1.549,-0.043,-9.347,-0.006,0.011,-0.02
84498,1.554,-0.05,-9.357,-0.006,0.011,-0.02
84601,1.549,-0.045,-9.347,-0.007,0.011,-0.02
84704,1.539,-0.048,-9.359,-0.007,0.011,-0.02
84807,1.561,-0.041,-9.345,-0.007,0.011,-0.02
84910,1.544,-0.05,-9.359,-0.006,0.011,-0.02
85013,1.549,-0.055,-9.345,-0.007,0.011,-0.02
85116,1.554,-0.05,-9.34,-0.007,0.01,-0.02
85219,1.549,-0.048,-9.333,-0.007,0.011,-0.021
85322,1.551,-0.045,-9.347,-0.007,0.011,-0.021
85425,1.566,-0.041,-9.361,-0.007,0.011,-0.02
85528,1.549,-0.05,-9.354,-0.007,0.011,-0.02
85631,1.551,-0.048,-9.371,-0.006,0.011,-0.02
85734,1.547,-0.053,-9.347,-0.007,0.011,-0.02
85837,1.551,-0.05,-9.349,-0.007,0.011,-0.02
85940,1.537,-0.045,-9.369,-0.007,0.011,-0.02
86043,1.556,-0.045,-9.357,-0.007,0.011,-0.02
86146,1.551,-0.038,-9.359,-0.007,0.01,-0.02
86249,1.556,-0.041,-9.359,-0.007,0.011,-0.02
86352,1.547,-0.043,-9.347,-0.007,0.011,-0.02
86455,1.547,-0.041,-9.34,-0.007,0.011,-0.021
86558,1.549,-0.048,-9.342,-0.007,0.011,-0.021
86661,1.542,-0.053,-9.345,-0.007,0.011,-0.02
86764,1.559,-0.041,-9.361,-0.007,0.011,-0.02
86867,1.539,-0.036,-9.364,-0.007,0.011,-0.02
86970,1.547,-0.053,-9.361,-0.007,0.011,-0.021
87073,1.556,-0.043,-9.364,-0.007,0.011,-0.02
87176,1.547,-0.053,-9.342,-0.007,0.011,-0.02
87279,1.544,-0.048,-9.354,-0.007,0.01,-0.02
87382,1.544,-0.048,-9.354,-0.007,0.01,-0.021
87485,1.547,-0.05,-9.361,-0.007,0.011,-0.02
87588,1.547,-0.041,-9.349,-0.007,0.011,-0.021
87691,1.547,-0.043,-9.366,-0.007,0.011,-0.02
87794,1.551,-0.048,-9.34,-0.007,0.011,-0.02
87897,1.556,-0.05,-9.347,-0.006,0.01,-0.021
88000,1.549,-0.045,-9.34,-0.007,0.01,-0.02
88103,1.551,-0.05,-9.347,-0.007,0.011,-0.021
88206,1.561,-0.045,-9.357,-0.006,0.011,-0.02
88309,1.559,-0.038,-9.359,-0.007,0.011,-0.02
88412,1.556,-0.045,-9.347,-0.007,0.011,-0.021
88515,1.542,-0.038,-9.359,-0.006,0.011,-0.02
88618,1.539,-0.048,-9.352,-0.007,0.011,-0.02
88721,1.556,-0.045,-9.369,-0.007,0.011,-0.02
88824,1.554,-0.057,-9.361,-0.007,0.011,-0.02
88927,1.537,-0.048,-9.347,-0.007,0.011,-0.02
89030,1.561,-0.045,-9.352,-0.007,0.011,-0.02
89133,1.549,-0.038,-9.345,-0.006,0.011,-0.02
89236,1.559,-0.048,-9.357,-0.007,0.011,-0.02
89339,1.556,-0.041,-9.361,-0.007,0.011,-0.021
89442,1.551,-0.043,-9.352,-0.007,0.011,-0.02
89545,1.539,-0.041,-9.342,-0.007,0.011,-0.02
89648,1.549,-0.05,-9.347,-0.007,0.011,-0.021
89751,1.547,-0.045,-9.34,-0.007,0.01,-0.02
89854,1.549,-0.043,-9.354,-0.007,0.011,-0.02
89957,1.551,-0.053,-9.364,-0.007,0.011,-0.019
90060,1.556,-0.055,-9.359,-0.007,0.01,-0.02
90163,1.556,-0.038,-9.357,-0.007,0.011,-0.02
90266,1.544,-0.05,-9.354,-0.007,0.011,-0.02
90369,1.547,-0.048,-9.354,-0.007,0.011,-0.02
90472,1.556,-0.043,-9.359,-0.006,0.01,-0.02
90575,1.544,-0.045,-9.361,-0.007,0.011,-0.02
90678,1.542,-0.053,-9.349,-0.007,0.011,-0.02
90781,1.556,-0.043,-9.349,-0.006,0.011,-0.02
90884,1.559,-0.057,-9.34,-0.007,0.011,-0.021
90987,1.556,-0.043,-9.361,-0.007,0.011,-0.02
91090,1.532,-0.041,-9.354,-0.007,0.011,-0.02
91193,1.539,-0.053,-9.352,-0.007,0.01,-0.02
91296,1.556,-0.053,-9.357,-0.006,0.011,-0.021
91399,1.551,-0.06,-9.342,-0.006,0.011,-0.02
91502,1.551,-0.041,-9.359,-0.007,0.01,-0.021
91605,1.551,-0.05,-9.349,-0.007,0.011,-0.02
91708,1.556,-0.053,-9.347,-0.007,0.011,-0.021
91811,1.559,-0.048,-9.349,-0.007,0.01,-0.021
91914,1.549,-0.048,-9.359,-0.007,0.011,-0.02
92017,1.549,-0.041,-9.345,-0.007,0.011,-0.02
92120,1.551,-0.045,-9.361,-0.007,0.011,-0.02
92223,1.547,-0.05,-9.347,-0.007,0.011,-0.02
92326,1.559,-0.057,-9.366,-0.007,0.011,-0.02
92429,1.542,-0.05,-9.366,-0.007,0.011,-0.02
92532,1.547,-0.048,-9.349,-0.007,0.011,-0.02
92635,1.556,-0.038,-9.347,-0.007,0.011,-0.02
92738,1.551,-0.05,-9.366,-0.007,0.01,-0.02
92841,1.544,-0.043,-9.352,-0.007,0.011,-0.02
92944,1.559,-0.043,-9.352,-0.006,0.011,-0.02
93047,1.554,-0.055,-9.349,-0.007,0.011,-0.02
93150,1.556,-0.055,-9.349,-0.007,0.011,-0.02
93253,1.551,-0.045,-9.342,-0.007,0.011,-0.02
93356,1.556,-0.041,-9.345,-0.007,0.011,-0.019
93459,1.547,-0.045,-9.361,-0.007,0.011,-0.02
93562,1.554,-0.043,-9.337,-0.006,0.011,-0.02
93665,1.542,-0.045,-9.33,-0.006,0.011,-0.02
93768,1.556,-0.043,-9.352,-0.007,0.011,-0.02
93871,1.544,-0.055,-9.34,-0.007,0.011,-0.02
93974,1.547,-0.041,-9.347,-0.007,0.011,-0.021
94077,1.554,-0.045,-9.359,-0.007,0.011,-0.02
94180,1.551,-0.048,-9.354,-0.007,0.011,-0.02
94283,1.556,-0.038,-9.354,-0.007,0.011,-0.02
94386,1.554,-0.045,-9.359,-0.007,0.011,-0.02
94489,1.549,-0.041,-9.357,-0.007,0.011,-0.02
94592,1.563,-0.05,-9.347,-0.007,0.011,-0.02
94695,1.556,-0.05,-9.347,-0.007,0.011,-0.02
94798,1.544,-0.045,-9.345,-0.007,0.011,-0.02
94901,1.554,-0.045,-9.345,-0.006,0.011,-0.021
95004,1.547,-0.043,-9.352,-0.007,0.011,-0.02
95107,1.551,-0.043,-9.354,-0.007,0.011,-0.02
95210,1.551,-0.045,-9.359,-0.007,0.011,-0.02
95313,1.547,-0.045,-9.349,-0.007,0.011,-0.02
95416,1.551,-0.05,-9.337,-0.007,0.011,-0.02
95519,1.556,-0.045,-9.357,-0.007,0.01,-0.02
95622,1.542,-0.053,-9.352,-0.006,0.011,-0.02
95725,1.547,-0.043,-9.366,-0.007,0.011,-0.021
95828,1.549,-0.048,-9.352,-0.007,0.011,-0.02
95931,1.544,-0.057,-9.354,-0.006,0.01,-0.02
96034,1.561,-0.045,-9.361,-0.006,0.011,-0.02
96137,1.542,-0.048,-9.354,-0.007,0.01,-0.02
96240,1.547,-0.057,-9.354,-0.007,0.011,-0.021
96343,1.559,-0.038,-9.342,-0.007,0.011,-0.02
96446,1.549,-0.048,-9.361,-0.007,0.011,-0.02
96549,1.551,-0.045,-9.359,-0.006,0.011,-0.02
96652,1.556,-0.05,-9.354,-0.006,0.011,-0.02
96755,1.544,-0.048,-9.333,-0.007,0.011,-0.021
96858,1.559,-0.055,-9.349,-0.007,0.011,-0.02
96961,1.547,-0.05,-9.361,-0.007,0.011,-0.02
97064,1.559,-0.053,-9.342,-0.007,0.011,-0.02
97167,1.556,-0.045,-9.359,-0.006,0.011,-0.021
97270,1.549,-0.048,-9.352,-0.007,0.011,-0.02
97373,1.554,-0.043,-9.359,-0.007,0.011,-0.02
97476,1.554,-0.048,-9.364,-0.007,0.011,-0.021
97579,1.547,-0.041,-9.361,-0.006,0.01,-0.02
97682,1.554,-0.055,-9.364,-0.007,0.011,-0.02
97785,1.549,-0.043,-9.357,-0.007,0.011,-0.02
97888,1.542,-0.05,-9.352,-0.007,0.011,-0.021
97991,1.563,-0.043,-9.342,-0.007,0.011,-0.021
98094,1.554,-0.045,-9.359,-0.007,0.011,-0.02
98197,1.551,-0.041,-9.352,-0.007,0.011,-0.02
98300,1.554,-0.06,-9.359,-0.007,0.011,-0.021
98403,1.547,-0.048,-9.359,-0.007,0.01,-0.02
98506,1.556,-0.057,-9.354,-0.007,0.011,-0.021
98609,1.559,-0.048,-9.369,-0.007,0.011,-0.02
98712,1.542,-0.053,-9.347,-0.007,0.01,-0.02
98815,1.544,-0.045,-9.364,-0.007,0.011,-0.021
98918,1.549,-0.043,-9.361,-0.007,0.011,-0.02
99021,1.537,-0.036,-9.357,-0.007,0.011,-0.02
99124,1.556,-0.05,-9.347,-0.007,0.011,-0.02
99227,1.556,-0.053,-9.352,-0.006,0.01,-0.02
99330,1.547,-0.06,-9.354,-0.006,0.011,-0.02
99433,1.551,-0.038,-9.354,-0.007,0.011,-0.021
99536,1.544,-0.05,-9.359,-0.007,0.011,-0.02
99639,1.554,-0.045,-9.357,-0.007,0.011,-0.02
99742,1.556,-0.048,-9.347,-0.007,0.011,-0.02
99845,1.544,-0.05,-9.352,-0.006,0.011,-0.021
99948,1.556,-0.045,-9.357,-0.007,0.011,-0.02
100051,1.551,-0.05,-9.347,-0.006,0.011,-0.02
100154,1.539,-0.038,-9.364,-0.007,0.011,-0.021
100257,1.559,-0.038,-9.364,-0.007,0.011,-0.02
100360,1.547,-0.043,-9.369,-0.007,0.011,-0.02
100463,1.556,-0.041,-9.342,-0.007,0.011,-0.021
100566,1.556,-0.045,-9.361,-0.007,0.011,-0.02
100669,1.554,-0.048,-9.357,-0.007,0.011,-0.02
100772,1.556,-0.041,-9.371,-0.007,0.01,-0.02
100875,1.556,-0.041,-9.369,-0.007,0.011,-0.02
100978,1.554,-0.043,-9.352,-0.007,0.01,-0.02
101081,1.556,-0.041,-9.349,-0.007,0.011,-0.021
101184,1.551,-0.05,-9.364,-0.007,0.011,-0.02
101287,1.559,-0.043,-9.359,-0.007,0.011,-0.021
101390,1.561,-0.043,-9.366,-0.007,0.011,-0.02
101493,1.547,-0.053,-9.342,-0.006,0.011,-0.02
101596,1.544,-0.048,-9.349,-0.007,0.011,-0.021
101699,1.559,-0.055,-9.359,-0.007,0.011,-0.02
101802,1.544,-0.048,-9.345,-0.007,0.011,-0.021
101905,1.549,-0.053,-9.354,-0.007,0.011,-0.021
102008,1.554,-0.045,-9.357,-0.006,0.011,-0.02
102111,1.544,-0.041,-9.354,-0.007,0.011,-0.02
102214,1.554,-0.053,-9.349,-0.007,0.011,-0.021
102317,1.544,-0.053,-9.342,-0.007,0.011,-0.02
102420,1.549,-0.036,-9.357,-0.007,0.011,-0.02
102523,1.549,-0.048,-9.349,-0.007,0.011,-0.02
102626,1.535,-0.055,-9.352,-0.007,0.011,-0.02
102729,1.556,-0.045,-9.352,-0.007,0.011,-0.021
102832,1.549,-0.038,-9.347,-0.007,0.011,-0.02
102935,1.544,-0.05,-9.352,-0.007,0.011,-0.02
103038,1.554,-0.043,-9.359,-0.007,0.011,-0.02
103141,1.551,-0.055,-9.359,-0.007,0.011,-0.02
103244,1.542,-0.05,-9.347,-0.006,0.011,-0.021
103347,1.551,-0.048,-9.364,-0.006,0.011,-0.02
103450,1.542,-0.053,-9.345,-0.007,0.01,-0.02
103553,1.561,-0.043,-9.361,-0.007,0.011,-0.021
103656,1.551,-0.041,-9.364,-0.007,0.01,-0.019
103759,1.547,-0.045,-9.359,-0.007,0.011,-0.02
103862,1.556,-0.048,-9.349,-0.007,0.011,-0.021
103965,1.551,-0.055,-9.354,-0.007,0.011,-0.02
104068,1.556,-0.055,-9.357,-0.006,0.011,-0.02
104171,1.549,-0.036,-9.359,-0.007,0.011,-0.02
104274,1.539,-0.041,-9.352,-0.007,0.011,-0.02
104377,1.542,-0.048,-9.349,-0.007,0.011,-0.02
104480,1.551,-0.048,-9.347,-0.007,0.011,-0.021
104583,1.544,-0.05,-9.352,-0.007,0.011,-0.021
104686,1.554,-0.038,-9.354,-0.007,0.011,-0.021
104789,1.547,-0.043,-9.366,-0.006,0.011,-0.021
104892,1.551,-0.053,-9.34,-0.007,0.011,-0.021
104995,1.563,-0.045,-9.352,-0.007,0.011,-0.021
105098,1.549,-0.036,-9.347,-0.007,0.011,-0.02
105201,1.551,-0.045,-9.342,-0.007,0.011,-0.021
105304,1.544,-0.048,-9.352,-0.007,0.011,-0.021
105407,1.542,-0.043,-9.366,-0.007,0.01,-0.02
105510,1.549,-0.043,-9.335,-0.007,0.011,-0.02
105613,1.551,-0.043,-9.359,-0.007,0.011,-0.02
105716,1.547,-0.053,-9.361,-0.007,0.011,-0.021
105819,1.556,-0.053,-9.359,-0.007,0.011,-0.021
105922,1.544,-0.043,-9.357,-0.006,0.011,-0.021
106025,1.547,-0.048,-9.349,-0.007,0.011,-0.021
106128,1.556,-0.048,-9.349,-0.007,0.011,-0.021
106231,1.549,-0.053,-9.361,-0.007,0.011,-0.02
106334,1.547,-0.043,-9.359,-0.007,0.011,-0.02
106437,1.551,-0.043,-9.345,-0.007,0.011,-0.02
106540,1.542,-0.048,-9.357,-0.007,0.011,-0.02
106643,1.563,-0.05,-9.357,-0.007,0.011,-0.02
106746,1.547,-0.041,-9.349,-0.007,0.011,-0.02
106849,1.549,-0.05,-9.345,-0.007,0.011,-0.021
106952,1.554,-0.045,-9.345,-0.007,0.011,-0.02
107055,1.539,-0.048,-9.347,-0.007,0.011,-0.02
107158,1.551,-0.05,-9.342,-0.007,0.011,-0.021
107261,1.559,-0.05,-9.378,-0.007,0.011,-0.02
107364,1.551,-0.043,-9.361,-0.007,0.011,-0.019
107467,1.554,-0.043,-9.359,-0.007,0.011,-0.02
107570,1.563,-0.048,-9.349,-0.007,0.011,-0.019
107673,1.532,-0.055,-9.357,-0.007,0.011,-0.02
107776,1.559,-0.038,-9.366,-0.007,0.011,-0.02
107879,1.547,-0.048,-9.352,-0.007,0.011,-0.02
107982,1.544,-0.048,-9.364,-0.007,0.011,-0.02
108085,1.559,-0.05,-9.366,-0.007,0.011,-0.02
108188,1.542,-0.053,-9.352,-0.007,0.011,-0.02
108291,1.539,-0.05,-9.354,-0.007,0.011,-0.02
108394,1.549,-0.048,-9.357,-0.007,0.011,-0.02
108497,1.544,-0.043,-9.357,-0.007,0.011,-0.02
108600,1.547,-0.05,-9.354,-0.007,0.011,-0.02
108703,1.542,-0.041,-9.366,-0.007,0.01,-0.02
108806,1.537,-0.05,-9.345,-0.007,0.011,-0.02
108909,1.554,-0.053,-9.342,-0.007,0.011,-0.02
109012,1.551,-0.048,-9.357,-0.007,0.011,-0.02
109115,1.561,-0.048,-9.357,-0.007,0.011,-0.02
109218,1.551,-0.055,-9.364,-0.007,0.011,-0.02
109321,1.547,-0.048,-9.349,-0.007,0.011,-0.02
109424,1.549,-0.055,-9.34,-0.007,0.011,-0.021
109527,1.549,-0.041,-9.354,-0.007,0.01,-0.02
109630,1.544,-0.05,-9.34,-0.007,0.011,-0.02
109733,1.551,-0.048,-9.354,-0.007,0.011,-0.021
109836,1.547,-0.05,-9.359,-0.007,0.011,-0.021
109939,1.539,-0.05,-9.357,-0.007,0.011,-0.021
110042,1.551,-0.045,-9.349,-0.007,0.011,-0.02
110145,1.549,-0.053,-9.354,-0.007,0.011,-0.02
110248,1.542,-0.055,-9.366,-0.007,0.011,-0.021
110351,1.554,-0.048,-9.337,-0.007,0.011,-0.02
110454,1.547,-0.043,-9.349,-0.007,0.011,-0.02
110557,1.547,-0.048,-9.357,-0.007,0.011,-0.02
110660,1.551,-0.045,-9.342,-0.006,0.011,-0.02
110763,1.535,-0.038,-9.369,-0.007,0.011,-0.02
110866,1.554,-0.045,-9.361,-0.007,0.011,-0.02
110969,1.544,-0.057,-9.349,-0.007,0.011,-0.02
111072,1.547,-0.05,-9.359,-0.006,0.011,-0.02
111175,1.551,-0.041,-9.345,-0.007,0.011,-0.02
111278,1.554,-0.05,-9.361,-0.007,0.01,-0.02
111381,1.561,-0.05,-9.352,-0.007,0.011,-0.021
111484,1.556,-0.05,-9.359,-0.007,0.011,-0.02
111587,1.544,-0.05,-9.349,-0.007,0.011,-0.02
111690,1.556,-0.05,-9.359,-0.007,0.011,-0.02
111793,1.559,-0.045,-9.352,-0.007,0.011,-0.02
111896,1.549,-0.048,-9.337,-0.007,0.011,-0.021
111999,1.563,-0.045,-9.345,-0.006,0.011,-0.021
112102,1.551,-0.043,-9.361,-0.006,0.011,-0.02
112205,1.554,-0.043,-9.364,-0.007,0.011,-0.021
112308,1.551,-0.041,-9.354,-0.006,0.01,-0.02
112411,1.561,-0.045,-9.349,-0.007,0.01,-0.02
112514,1.556,-0.041,-9.354,-0.007,0.011,-0.021
112617,1.549,-0.043,-9.352,-0.006,0.011,-0.02
112720,1.544,-0.043,-9.371,-0.007,0.011,-0.02
112823,1.554,-0.043,-9.364,-0.007,0.011,-0.02
112926,1.556,-0.041,-9.349,-0.007,0.011,-0.02
113029,1.539,-0.045,-9.349,-0.007,0.011,-0.02
113132,1.556,-0.053,-9.354,-0.007,0.011,-0.021
113235,1.539,-0.043,-9.354,-0.006,0.011,-0.02
113338,1.551,-0.045,-9.364,-0.007,0.011,-0.02
113441,1.551,-0.045,-9.349,-0.007,0.01,-0.02
113544,1.554,-0.038,-9.357,-0.007,0.01,-0.02
113647,1.551,-0.041,-9.349,-0.007,0.011,-0.021
113750,1.551,-0.045,-9.359,-0.007,0.011,-0.02
113853,1.544,-0.041,-9.347,-0.007,0.011,-0.02
113956,1.554,-0.045,-9.359,-0.007,0.011,-0.021
114059,1.551,-0.05,-9.364,-0.007,0.011,-0.02
114162,1.551,-0.053,-9.369,-0.007,0.011,-0.02
114265,1.559,-0.043,-9.352,-0.007,0.011,-0.021
114368,1.544,-0.043,-9.354,-0.007,0.011,-0.02
114471,1.542,-0.038,-9.347,-0.007,0.011,-0.02
114574,1.549,-0.031,-9.352,-0.007,0.011,-0.02
114677,1.544,-0.043,-9.352,-0.007,0.011,-0.02
114780,1.549,-0.048,-9.354,-0.007,0.01,-0.02
114883,1.559,-0.043,-9.347,-0.006,0.011,-0.02
114986,1.542,-0.043,-9.345,-0.007,0.011,-0.021
115089,1.559,-0.038,-9.369,-0.007,0.011,-0.02
115192,1.544,-0.05,-9.349,-0.007,0.011,-0.02
115295,1.544,-0.053,-9.347,-0.007,0.011,-0.02
115398,1.549,-0.053,-9.357,-0.007,0.011,-0.02
115501,1.549,-0.055,-9.349,-0.006,0.011,-0.02
115604,1.551,-0.048,-9.352,-0.007,0.011,-0.021
115707,1.559,-0.055,-9.359,-0.007,0.011,-0.02
115810,1.539,-0.043,-9.352,-0.007,0.011,-0.021
115913,1.554,-0.036,-9.347,-0.007,0.011,-0.02
116016,1.549,-0.05,-9.364,-0.007,0.011,-0.02
116119,1.554,-0.05,-9.359,-0.007,0.011,-0.021
116222,1.549,-0.048,-9.349,-0.007,0.011,-0.021
116325,1.551,-0.041,-9.352,-0.006,0.011,-0.02
116428,1.549,-0.048,-9.364,-0.007,0.011,-0.02
116531,1.556,-0.05,-9.371,-0.007,0.011,-0.02
116634,1.547,-0.038,-9.352,-0.007,0.011,-0.02
116737,1.554,-0.038,-9.354,-0.007,0.011,-0.021
116840,1.551,-0.041,-9.359,-0.007,0.011,-0.02
116943,1.532,-0.055,-9.349,-0.006,0.011,-0.02
117046,1.544,-0.043,-9.352,-0.007,0.011,-0.021
117149,1.547,-0.048,-9.352,-0.007,0.011,-0.02
117252,1.551,-0.048,-9.349,-0.007,0.011,-0.02
117355,1.551,-0.029,-9.352,-0.007,0.011,-0.02
117458,1.551,-0.045,-9.357,-0.007,0.011,-0.02
117561,1.551,-0.045,-9.361,-0.007,0.011,-0.02
117664,1.542,-0.034,-9.354,-0.007,0.011,-0.02
117767,1.547,-0.041,-9.349,-0.007,0.011,-0.02
117870,1.559,-0.045,-9.357,-0.007,0.011,-0.021
117973,1.556,-0.05,-9.342,-0.006,0.011,-0.02
118076,1.549,-0.05,-9.364,-0.007,0.011,-0.021
118179,1.559,-0.045,-9.349,-0.007,0.011,-0.021
118282,1.544,-0.045,-9.352,-0.007,0.011,-0.02
118385,1.551,-0.057,-9.349,-0.007,0.011,-0.021
118488,1.539,-0.045,-9.357,-0.007,0.011,-0.02
118591,1.544,-0.048,-9.342,-0.007,0.01,-0.021
118694,1.556,-0.036,-9.352,-0.007,0.011,-0.02
118797,1.563,-0.043,-9.349,-0.007,0.011,-0.02
118900,1.554,-0.045,-9.366,-0.007,0.011,-0.02
119003,1.556,-0.048,-9.347,-0.006,0.011,-0.02
119106,1.561,-0.05,-9.357,-0.007,0.011,-0.02
119209,1.551,-0.043,-9.354,-0.007,0.011,-0.02
119312,1.551,-0.055,-9.352,-0.007,0.011,-0.02
119415,1.544,-0.055,-9.371,-0.007,0.011,-0.021
119518,1.547,-0.05,-9.364,-0.007,0.011,-0.021
119621,1.556,-0.041,-9.364,-0.007,0.011,-0.02
119724,1.542,-0.038,-9.354,-0.007,0.011,-0.02
119827,1.561,-0.055,-9.359,-0.007,0.011,-0.021
119930,1.549,-0.05,-9.369,-0.007,0.011,-0.02
120033,1.537,-0.043,-9.34,-0.007,0.011,-0.02
120136,1.554,-0.05,-9.364,-0.007,0.011,-0.021
120239,1.554,-0.045,-9.357,-0.007,0.011,-0.021
120342,1.561,-0.053,-9.366,-0.007,0.011,-0.02
120445,1.547,-0.043,-9.357,-0.006,0.011,-0.02
120548,1.554,-0.034,-9.357,-0.006,0.011,-0.02
120651,1.556,-0.045,-9.357,-0.007,0.011,-0.021
120754,1.549,-0.043,-9.354,-0.007,0.011,-0.02
120857,1.542,-0.048,-9.352,-0.007,0.011,-0.02
120960,1.554,-0.043,-9.354,-0.007,0.011,-0.02
121063,1.549,-0.048,-9.347,-0.007,0.011,-0.021
121166,1.556,-0.053,-9.345,-0.007,0.011,-0.02
121269,1.559,-0.048,-9.359,-0.007,0.011,-0.02
121372,1.544,-0.053,-9.361,-0.006,0.011,-0.021
121475,1.554,-0.048,-9.337,-0.007,0.011,-0.02
121578,1.551,-0.043,-9.361,-0.007,0.011,-0.02
121681,1.554,-0.055,-9.371,-0.006,0.011,-0.02
121784,1.559,-0.053,-9.349,-0.006,0.011,-0.021
121887,1.551,-0.045,-9.357,-0.007,0.011,-0.02
121990,1.551,-0.05,-9.345,-0.007,0.011,-0.02
122093,1.554,-0.053,-9.354,-0.007,0.011,-0.021
122196,1.542,-0.05,-9.357,-0.006,0.011,-0.019
122299,1.537,-0.055,-9.371,-0.007,0.011,-0.02
122402,1.551,-0.048,-9.347,-0.007,0.011,-0.02
122505,1.547,-0.053,-9.347,-0.006,0.011,-0.021
122608,1.551,-0.055,-9.364,-0.007,0.011,-0.021
122711,1.554,-0.043,-9.357,-0.007,0.011,-0.021
122814,1.539,-0.057,-9.352,-0.007,0.011,-0.02
122917,1.539,-0.048,-9.352,-0.007,0.011,-0.02
123020,1.554,-0.041,-9.34,-0.007,0.011,-0.02
123123,1.547,-0.048,-9.347,-0.007,0.011,-0.02
123226,1.551,-0.045,-9.352,-0.007,0.011,-0.02
123329,1.542,-0.05,-9.359,-0.007,0.011,-0.02
123432,1.549,-0.048,-9.354,-0.007,0.011,-0.02
123535,1.549,-0.05,-9.349,-0.007,0.011,-0.021
123638,1.549,-0.041,-9.354,-0.007,0.011,-0.02
123741,1.551,-0.045,-9.364,-0.006,0.01,-0.02
123844,1.554,-0.036,-9.357,-0.006,0.011,-0.02
123947,1.547,-0.053,-9.361,-0.007,0.011,-0.021
124050,1.563,-0.048,-9.364,-0.007,0.011,-0.02
124153,1.549,-0.043,-9.349,-0.007,0.011,-0.02
124256,1.549,-0.053,-9.352,-0.007,0.011,-0.02
124359,1.551,-0.043,-9.369,-0.007,0.011,-0.021
124462,1.551,-0.05,-9.352,-0.007,0.011,-0.02
124565,1.547,-0.048,-9.345,-0.007,0.011,-0.02
124668,1.554,-0.041,-9.342,-0.007,0.011,-0.02
124771,1.554,-0.045,-9.366,-0.007,0.011,-0.021
124874,1.561,-0.053,-9.359,-0.007,0.011,-0.021
124977,1.559,-0.043,-9.357,-0.007,0.01,-0.02
125080,1.551,-0.053,-9.354,-0.007,0.011,-0.021
125183,1.554,-0.041,-9.361,-0.007,0.01,-0.02
125286,1.537,-0.048,-9.361,-0.007,0.01,-0.02
125389,1.547,-0.034,-9.345,-0.007,0.011,-0.02
125492,1.556,-0.048,-9.361,-0.007,0.011,-0.02
125595,1.554,-0.043,-9.357,-0.007,0.011,-0.02
125698,1.559,-0.048,-9.366,-0.007,0.011,-0.02
125801,1.549,-0.048,-9.352,-0.007,0.011,-0.02
125904,1.547,-0.038,-9.345,-0.007,0.011,-0.02
126007,1.551,-0.048,-9.359,-0.007,0.01,-0.021
126110,1.551,-0.043,-9.352,-0.006,0.011,-0.02
126213,1.559,-0.048,-9.364,-0.007,0.011,-0.021
126316,1.551,-0.041,-9.371,-0.007,0.011,-0.021
126419,1.551,-0.041,-9.364,-0.007,0.01,-0.02
126522,1.559,-0.043,-9.352,-0.007,0.011,-0.02
126625,1.563,-0.045,-9.349,-0.007,0.011,-0.02
126728,1.549,-0.048,-9.357,-0.007,0.011,-0.02
126831,1.549,-0.048,-9.364,-0.007,0.011,-0.021
126934,1.544,-0.045,-9.354,-0.007,0.011,-0.02
127037,1.539,-0.045,-9.357,-0.006,0.011,-0.021
127140,1.551,-0.038,-9.366,-0.006,0.011,-0.021
127243,1.551,-0.05,-9.359,-0.007,0.011,-0.02
127346,1.549,-0.053,-9.335,-0.007,0.011,-0.021
127449,1.549,-0.043,-9.364,-0.007,0.011,-0.02
127552,1.542,-0.05,-9.361,-0.006,0.011,-0.019
127655,1.559,-0.055,-9.359,-0.007,0.011,-0.02
127758,1.556,-0.043,-9.352,-0.007,0.011,-0.02
127861,1.551,-0.045,-9.357,-0.007,0.011,-0.021
127964,1.554,-0.043,-9.359,-0.007,0.011,-0.02
128067,1.549,-0.041,-9.361,-0.006,0.011,-0.02
128170,1.544,-0.048,-9.34,-0.007,0.011,-0.021
128273,1.559,-0.029,-9.359,-0.007,0.011,-0.021
128376,1.547,-0.043,-9.347,-0.007,0.011,-0.02
128479,1.542,-0.048,-9.359,-0.006,0.011,-0.02
128582,1.556,-0.045,-9.34,-0.007,0.011,-0.02
128685,1.547,-0.055,-9.352,-0.007,0.011,-0.02
128788,1.542,-0.048,-9.364,-0.007,0.011,-0.02
128891,1.551,-0.041,-9.357,-0.007,0.011,-0.02
128994,1.547,-0.05,-9.366,-0.007,0.011,-0.02
129097,1.551,-0.048,-9.366,-0.007,0.011,-0.021
129200,1.544,-0.045,-9.352,-0.007,0.011,-0.02
129303,1.542,-0.045,-9.354,-0.006,0.011,-0.02
129406,1.556,-0.038,-9.345,-0.006,0.011,-0.02
129509,1.551,-0.05,-9.349,-0.007,0.011,-0.02
129612,1.551,-0.038,-9.371,-0.007,0.011,-0.021
129715,1.554,-0.043,-9.364,-0.007,0.011,-0.02
129818,1.547,-0.053,-9.342,-0.006,0.011,-0.02
129921,1.554,-0.048,-9.366,-0.007,0.011,-0.021
130024,1.551,-0.038,-9.369,-0.007,0.011,-0.02
130127,1.551,-0.041,-9.352,-0.007,0.011,-0.02
130230,1.549,-0.043,-9.347,-0.007,0.011,-0.02
130333,1.544,-0.043,-9.347,-0.007,0.011,-0.02
130436,1.549,-0.041,-9.352,-0.007,0.011,-0.02
130539,1.554,-0.038,-9.357,-0.007,0.01,-0.021
130642,1.537,-0.041,-9.352,-0.007,0.01,-0.02
130745,1.542,-0.05,-9.357,-0.007,0.011,-0.02
130848,1.554,-0.041,-9.357,-0.007,0.011,-0.021
130951,1.547,-0.053,-9.349,-0.007,0.011,-0.021
131054,1.542,-0.053,-9.361,-0.007,0.011,-0.02
131157,1.547,-0.043,-9.376,-0.006,0.011,-0.021
131260,1.551,-0.05,-9.357,-0.007,0.011,-0.021
131363,1.554,-0.045,-9.357,-0.007,0.011,-0.02
131466,1.537,-0.05,-9.361,-0.007,0.011,-0.02
131569,1.554,-0.045,-9.347,-0.007,0.011,-0.021
131672,1.561,-0.055,-9.359,-0.007,0.011,-0.021
131775,1.549,-0.057,-9.354,-0.007,0.01,-0.02
131878,1.551,-0.043,-9.359,-0.007,0.011,-0.02
131981,1.554,-0.05,-9.364,-0.007,0.011,-0.02
132084,1.547,-0.05,-9.354,-0.007,0.011,-0.02
132187,1.549,-0.043,-9.347,-0.006,0.011,-0.021
132290,1.544,-0.048,-9.357,-0.006,0.011,-0.02
132393,1.544,-0.041,-9.34,-0.006,0.011,-0.02
132496,1.559,-0.043,-9.357,-0.007,0.011,-0.02
132599,1.544,-0.05,-9.354,-0.007,0.011,-0.02
132702,1.551,-0.041,-9.364,-0.007,0.011,-0.02
132805,1.556,-0.045,-9.354,-0.006,0.011,-0.02
132908,1.549,-0.05,-9.357,-0.006,0.011,-0.02
133011,1.554,-0.055,-9.347,-0.007,0.011,-0.021
133114,1.549,-0.045,-9.34,-0.007,0.011,-0.02
133217,1.556,-0.045,-9.354,-0.007,0.011,-0.02
133320,1.551,-0.048,-9.357,-0.007,0.011,-0.02
133423,1.551,-0.043,-9.354,-0.006,0.01,-0.02
133526,1.544,-0.055,-9.347,-0.007,0.011,-0.02
133629,1.556,-0.05,-9.352,-0.007,0.01,-0.02
133732,1.559,-0.048,-9.359,-0.006,0.01,-0.02
133835,1.551,-0.048,-9.333,-0.007,0.011,-0.02
133938,1.554,-0.043,-9.345,-0.006,0.011,-0.02
134041,1.539,-0.05,-9.349,-0.007,0.011,-0.021
134144,1.559,-0.05,-9.364,-0.007,0.011,-0.021
134247,1.551,-0.045,-9.378,-0.007,0.011,-0.02
134350,1.539,-0.053,-9.354,-0.007,0.011,-0.02
134453,1.547,-0.057,-9.352,-0.007,0.011,-0.02
134556,1.542,-0.053,-9.352,-0.007,0.011,-0.02
134659,1.559,-0.041,-9.342,-0.007,0.011,-0.021
134762,1.556,-0.043,-9.366,-0.006,0.011,-0.02
134865,1.544,-0.043,-9.345,-0.007,0.011,-0.02
134968,1.568,-0.048,-9.357,-0.007,0.011,-0.021
135071,1.547,-0.048,-9.359,-0.006,0.011,-0.02
135174,1.542,-0.053,-9.349,-0.007,0.011,-0.02
135277,1.559,-0.043,-9.366,-0.007,0.011,-0.02
135380,1.539,-0.055,-9.354,-0.007,0.011,-0.02
135483,1.551,-0.041,-9.369,-0.006,0.011,-0.02
135586,1.554,-0.045,-9.337,-0.007,0.011,-0.02
135689,1.547,-0.045,-9.359,-0.007,0.011,-0.02
135792,1.549,-0.043,-9.335,-0.007,0.012,-0.02
135895,1.559,-0.05,-9.357,-0.007,0.011,-0.02
135998,1.547,-0.045,-9.359,-0.007,0.011,-0.021
136101,1.556,-0.045,-9.366,-0.007,0.011,-0.02
136204,1.554,-0.048,-9.354,-0.007,0.011,-0.021
136307,1.542,-0.043,-9.354,-0.007,0.011,-0.02
136410,1.551,-0.05,-9.369,-0.007,0.011,-0.02
136513,1.542,-0.043,-9.352,-0.006,0.011,-0.02
136616,1.556,-0.05,-9.361,-0.007,0.011,-0.02
136719,1.561,-0.045,-9.364,-0.007,0.011,-0.02
136822,1.556,-0.043,-9.359,-0.006,0.011,-0.02
136925,1.556,-0.055,-9.359,-0.007,0.011,-0.02
137028,1.547,-0.043,-9.361,-0.007,0.011,-0.019
137131,1.551,-0.043,-9.357,-0.007,0.011,-0.02
137234,1.559,-0.043,-9.357,-0.007,0.011,-0.02
137337,1.551,-0.041,-9.349,-0.007,0.011,-0.02
137440,1.549,-0.041,-9.354,-0.007,0.011,-0.021
137543,1.551,-0.048,-9.359,-0.007,0.011,-0.02
137646,1.535,-0.048,-9.354,-0.006,0.011,-0.02
137749,1.539,-0.045,-9.371,-0.006,0.01,-0.02
137852,1.547,-0.041,-9.366,-0.007,0.011,-0.02
137955,1.549,-0.043,-9.33,-0.006,0.011,-0.021
138058,1.556,-0.045,-9.357,-0.007,0.011,-0.02
138161,1.551,-0.041,-9.373,-0.007,0.011,-0.02
138264,1.551,-0.043,-9.364,-0.007,0.011,-0.02
138367,1.561,-0.043,-9.373,-0.007,0.011,-0.02
138470,1.561,-0.048,-9.361,-0.006,0.011,-0.02
138573,1.549,-0.045,-9.361,-0.007,0.011,-0.021
138676,1.554,-0.048,-9.361,-0.007,0.011,-0.02
138779,1.547,-0.038,-9.364,-0.007,0.011,-0.021
138882,1.554,-0.045,-9.357,-0.007,0.011,-0.021
138985,1.547,-0.05,-9.359,-0.007,0.011,-0.02
139088,1.556,-0.036,-9.354,-0.006,0.011,-0.02
139191,1.559,-0.036,-9.364,-0.007,0.011,-0.021
139294,1.554,-0.045,-9.364,-0.007,0.011,-0.02
139397,1.561,-0.041,-9.349,-0.007,0.011,-0.02
139500,1.549,-0.038,-9.354,-0.007,0.011,-0.02
139603,1.539,-0.05,-9.359,-0.007,0.01,-0.02
139706,1.554,-0.053,-9.357,-0.007,0.011,-0.021
139809,1.549,-0.05,-9.361,-0.007,0.011,-0.02
139912,1.544,-0.05,-9.337,-0.007,0.011,-0.021
140015,1.556,-0.045,-9.364,-0.007,0.011,-0.02
140118,1.539,-0.036,-9.357,-0.006,0.011,-0.02
140221,1.549,-0.05,-9.342,-0.007,0.011,-0.021
140324,1.554,-0.043,-9.352,-0.007,0.011,-0.02
140427,1.549,-0.05,-9.357,-0.007,0.011,-0.021
140530,1.537,-0.045,-9.369,-0.007,0.011,-0.021
140633,1.563,-0.045,-9.349,-0.007,0.011,-0.02
140736,1.539,-0.05,-9.361,-0.007,0.011,-0.02
140839,1.556,-0.053,-9.357,-0.007,0.011,-0.02
140942,1.549,-0.05,-9.349,-0.007,0.011,-0.02
141045,1.544,-0.055,-9.333,-0.007,0.011,-0.02
141148,1.547,-0.038,-9.354,-0.007,0.011,-0.02
141251,1.549,-0.043,-9.352,-0.007,0.011,-0.02
141354,1.542,-0.041,-9.349,-0.007,0.011,-0.02
141457,1.556,-0.038,-9.364,-0.006,0.011,-0.02
141560,1.551,-0.048,-9.364,-0.006,0.011,-0.021
141663,1.549,-0.045,-9.352,-0.007,0.011,-0.021
141766,1.551,-0.043,-9.359,-0.006,0.011,-0.02
141869,1.539,-0.045,-9.357,-0.007,0.011,-0.02
141972,1.554,-0.041,-9.352,-0.007,0.012,-0.02
142075,1.547,-0.048,-9.369,-0.007,0.011,-0.02
142178,1.542,-0.041,-9.349,-0.007,0.011,-0.021
142281,1.554,-0.045,-9.366,-0.007,0.011,-0.02
142384,1.547,-0.038,-9.345,-0.007,0.011,-0.02
142487,1.539,-0.048,-9.359,-0.006,0.011,-0.021
142590,1.559,-0.053,-9.373,-0.007,0.011,-0.02
142693,1.549,-0.048,-9.347,-0.006,0.011,-0.02
142796,1.539,-0.057,-9.364,-0.007,0.011,-0.021
142899,1.549,-0.057,-9.361,-0.007,0.01,-0.021
143002,1.544,-0.036,-9.342,-0.006,0.011,-0.02
143105,1.563,-0.048,-9.361,-0.007,0.011,-0.02
143208,1.554,-0.05,-9.349,-0.007,0.011,-0.02
143311,1.542,-0.048,-9.34,-0.007,0.011,-0.02
143414,1.551,-0.041,-9.357,-0.007,0.011,-0.02
143517,1.549,-0.043,-9.354,-0.007,0.011,-0.02
143620,1.556,-0.048,-9.366,-0.007,0.011,-0.02
143723,1.547,-0.053,-9.354,-0.007,0.011,-0.02
143826,1.549,-0.053,-9.34,-0.006,0.011,-0.019
143929,1.556,-0.05,-9.361,-0.007,0.011,-0.02
144032,1.561,-0.048,-9.352,-0.007,0.011,-0.02
144135,1.554,-0.053,-9.359,-0.007,0.011,-0.021
144238,1.559,-0.05,-9.369,-0.007,0.011,-0.02
144341,1.539,-0.043,-9.349,-0.007,0.011,-0.02
144444,1.554,-0.048,-9.364,-0.006,0.011,-0.02
144547,1.551,-0.038,-9.366,-0.007,0.011,-0.02
144650,1.544,-0.045,-9.347,-0.007,0.011,-0.02
144753,1.549,-0.041,-9.359,-0.007,0.011,-0.021
144856,1.554,-0.031,-9.357,-0.007,0.011,-0.02
144959,1.537,-0.043,-9.369,-0.007,0.011,-0.02
145062,1.547,-0.045,-9.371,-0.007,0.011,-0.02
145165,1.549,-0.048,-9.342,-0.007,0.011,-0.02
145268,1.549,-0.05,-9.357,-0.006,0.011,-0.02
145371,1.549,-0.041,-9.354,-0.007,0.011,-0.02
145474,1.547,-0.05,-9.34,-0.007,0.011,-0.02
145577,1.551,-0.038,-9.354,-0.007,0.011,-0.02
145680,1.554,-0.065,-9.371,-0.007,0.011,-0.02
145783,1.532,-0.043,-9.361,-0.007,0.011,-0.02
145886,1.547,-0.045,-9.354,-0.007,0.011,-0.021
145989,1.551,-0.055,-9.366,-0.007,0.011,-0.02
146092,1.547,-0.053,-9.359,-0.007,0.011,-0.021
146195,1.556,-0.043,-9.345,-0.007,0.011,-0.02
146298,1.554,-0.05,-9.366,-0.007,0.011,-0.021
146401,1.551,-0.043,-9.342,-0.007,0.011,-0.021
146504,1.549,-0.05,-9.361,-0.006,0.011,-0.02
146607,1.549,-0.045,-9.357,-0.007,0.01,-0.02
146710,1.559,-0.05,-9.364,-0.007,0.011,-0.02
146813,1.561,-0.036,-9.352,-0.007,0.011,-0.02
146916,1.547,-0.045,-9.347,-0.007,0.011,-0.021
147019,1.551,-0.045,-9.347,-0.007,0.011,-0.02
147122,1.549,-0.043,-9.361,-0.007,0.011,-0.02
147225,1.549,-0.043,-9.354,-0.007,0.011,-0.021
147328,1.551,-0.038,-9.357,-0.007,0.011,-0.021
147431,1.556,-0.041,-9.364,-0.006,0.011,-0.02
147534,1.551,-0.045,-9.345,-0.006,0.011,-0.021
147637,1.547,-0.053,-9.359,-0.007,0.011,-0.02
147740,1.551,-0.043,-9.359,-0.007,0.011,-0.02
147843,1.559,-0.045,-9.364,-0.007,0.011,-0.021
147946,1.559,-0.038,-9.357,-0.006,0.011,-0.02
148049,1.544,-0.043,-9.352,-0.007,0.011,-0.021
148152,1.556,-0.043,-9.352,-0.007,0.01,-0.02
148255,1.549,-0.048,-9.352,-0.007,0.011,-0.02
148358,1.535,-0.043,-9.349,-0.007,0.011,-0.02
148461,1.542,-0.036,-9.369,-0.007,0.011,-0.02
148564,1.559,-0.048,-9.357,-0.007,0.011,-0.02
148667,1.559,-0.05,-9.352,-0.007,0.011,-0.021
148770,1.549,-0.036,-9.359,-0.006,0.011,-0.02
148873,1.539,-0.05,-9.354,-0.007,0.011,-0.02
148976,1.559,-0.041,-9.354,-0.007,0.011,-0.02
149079,1.547,-0.05,-9.366,-0.006,0.011,-0.021
149182,1.547,-0.045,-9.354,-0.007,0.011,-0.021
149285,1.559,-0.048,-9.345,-0.007,0.011,-0.021
149388,1.549,-0.05,-9.349,-0.007,0.011,-0.02
149491,1.539,-0.036,-9.349,-0.007,0.011,-0.02
149594,1.551,-0.05,-9.349,-0.007,0.011,-0.021
149697,1.537,-0.053,-9.352,-0.007,0.011,-0.02
149800,1.561,-0.06,-9.361,-0.007,0.011,-0.021
149903,1.549,-0.053,-9.354,-0.007,0.011,-0.02
150006,1.535,-0.06,-9.342,-0.007,0.011,-0.02
150109,1.551,-0.057,-9.347,-0.007,0.011,-0.021
150212,1.551,-0.05,-9.359,-0.007,0.011,-0.021
150315,1.549,-0.041,-9.347,-0.007,0.011,-0.02
150418,1.561,-0.043,-9.361,-0.007,0.011,-0.02
150521,1.549,-0.055,-9.342,-0.006,0.011,-0.02
150624,1.544,-0.048,-9.349,-0.007,0.011,-0.02
150727,1.556,-0.045,-9.364,-0.007,0.011,-0.02
150830,1.549,-0.043,-9.349,-0.007,0.01,-0.02
150933,1.556,-0.048,-9.354,-0.007,0.011,-0.021
151036,1.547,-0.045,-9.366,-0.007,0.011,-0.02
151139,1.551,-0.055,-9.354,-0.006,0.01,-0.02
151242,1.549,-0.038,-9.357,-0.007,0.011,-0.021
151345,1.539,-0.045,-9.366,-0.007,0.011,-0.02
151448,1.542,-0.045,-9.352,-0.007,0.011,-0.021
151551,1.554,-0.053,-9.361,-0.007,0.011,-0.02
151654,1.542,-0.048,-9.349,-0.007,0.011,-0.02
151757,1.539,-0.05,-9.345,-0.007,0.011,-0.02
151860,1.544,-0.048,-9.366,-0.007,0.011,-0.02
151963,1.547,-0.045,-9.349,-0.007,0.011,-0.02
152066,1.554,-0.048,-9.352,-0.007,0.011,-0.02
152169,1.547,-0.048,-9.354,-0.007,0.011,-0.02
152272,1.547,-0.048,-9.337,-0.007,0.011,-0.021
152375,1.561,-0.045,-9.359,-0.007,0.011,-0.021
152478,1.547,-0.048,-9.359,-0.007,0.01,-0.02
152581,1.542,-0.041,-9.352,-0.007,0.011,-0.02
152684,1.556,-0.045,-9.357,-0.007,0.011,-0.021
152787,1.547,-0.045,-9.352,-0.007,0.011,-0.02
152890,1.551,-0.045,-9.361,-0.007,0.011,-0.02
152993,1.556,-0.053,-9.357,-0.007,0.011,-0.02
153096,1.535,-0.055,-9.345,-0.007,0.011,-0.021
153199,1.551,-0.045,-9.371,-0.007,0.011,-0.02
153302,1.551,-0.048,-9.349,-0.007,0.011,-0.02
153405,1.549,-0.05,-9.354,-0.006,0.011,-0.021
153508,1.554,-0.043,-9.366,-0.007,0.011,-0.021
153611,1.551,-0.045,-9.354,-0.007,0.011,-0.02
153714,1.542,-0.045,-9.337,-0.007,0.011,-0.02
153817,1.561,-0.043,-9.364,-0.007,0.011,-0.02
153920,1.551,-0.045,-9.361,-0.007,0.011,-0.02
154023,1.549,-0.053,-9.366,-0.007,0.011,-0.02
154126,1.556,-0.029,-9.364,-0.007,0.011,-0.02
154229,1.547,-0.053,-9.347,-0.007,0.011,-0.02
154332,1.554,-0.041,-9.357,-0.007,0.011,-0.02
154435,1.549,-0.045,-9.361,-0.006,0.011,-0.02
154538,1.549,-0.045,-9.371,-0.007,0.011,-0.02
154641,1.551,-0.038,-9.361,-0.007,0.011,-0.021
154744,1.537,-0.06,-9.359,-0.007,0.011,-0.021
154847,1.551,-0.048,-9.359,-0.006,0.011,-0.02
154950,1.561,-0.048,-9.349,-0.007,0.011,-0.02
155053,1.542,-0.043,-9.347,-0.007,0.011,-0.021
155156,1.551,-0.043,-9.357,-0.007,0.011,-0.02
155259,1.556,-0.048,-9.349,-0.007,0.011,-0.02
155362,1.542,-0.05,-9.345,-0.007,0.011,-0.021
155465,1.547,-0.038,-9.357,-0.006,0.011,-0.021
155568,1.554,-0.048,-9.354,-0.006,0.011,-0.02
155671,1.544,-0.05,-9.345,-0.007,0.011,-0.02
155774,1.563,-0.038,-9.349,-0.007,0.011,-0.02
155877,1.551,-0.041,-9.352,-0.007,0.011,-0.021
155980,1.556,-0.055,-9.347,-0.007,0.011,-0.02
156083,1.556,-0.05,-9.376,-0.007,0.011,-0.02
156186,1.547,-0.053,-9.364,-0.007,0.011,-0.021
156289,1.549,-0.043,-9.364,-0.007,0.011,-0.02
156392,1.544,-0.041,-9.357,-0.007,0.011,-0.021
156495,1.547,-0.045,-9.345,-0.007,0.011,-0.021
156598,1.556,-0.043,-9.359,-0.006,0.011,-0.02
156701,1.556,-0.043,-9.337,-0.007,0.011,-0.02
156804,1.542,-0.048,-9.361,-0.007,0.011,-0.02
156907,1.554,-0.045,-9.349,-0.007,0.011,-0.02
157010,1.542,-0.043,-9.366,-0.007,0.011,-0.02
157113,1.549,-0.045,-9.371,-0.007,0.011,-0.021
157216,1.554,-0.053,-9.361,-0.007,0.011,-0.02
157319,1.537,-0.038,-9.349,-0.007,0.011,-0.021
157422,1.549,-0.05,-9.357,-0.007,0.011,-0.02
157525,1.547,-0.045,-9.364,-0.007,0.011,-0.02
157628,1.547,-0.038,-9.359,-0.007,0.011,-0.02
157731,1.554,-0.043,-9.359,-0.007,0.011,-0.02
157834,1.547,-0.041,-9.352,-0.006,0.011,-0.021
157937,1.549,-0.045,-9.359,-0.007,0.011,-0.02
158040,1.559,-0.043,-9.361,-0.007,0.011,-0.021
158143,1.547,-0.057,-9.352,-0.007,0.011,-0.02
158246,1.554,-0.048,-9.361,-0.007,0.011,-0.021
158349,1.556,-0.041,-9.361,-0.007,0.011,-0.02
158452,1.542,-0.045,-9.357,-0.006,0.011,-0.02
158555,1.549,-0.048,-9.378,-0.007,0.011,-0.021
158658,1.544,-0.045,-9.352,-0.007,0.011,-0.02
158761,1.551,-0.043,-9.354,-0.006,0.011,-0.021
158864,1.554,-0.043,-9.364,-0.007,0.011,-0.02
158967,1.547,-0.043,-9.347,-0.006,0.011,-0.02
159070,1.556,-0.05,-9.364,-0.007,0.011,-0.02
159173,1.554,-0.045,-9.347,-0.007,0.011,-0.02
159276,1.544,-0.048,-9.361,-0.007,0.011,-0.02
159379,1.563,-0.045,-9.366,-0.007,0.011,-0.021
159482,1.544,-0.041,-9.352,-0.006,0.011,-0.02
159585,1.547,-0.05,-9.347,-0.007,0.011,-0.02
159688,1.551,-0.038,-9.364,-0.007,0.011,-0.02
159791,1.535,-0.045,-9.357,-0.006,0.011,-0.02
159894,1.561,-0.045,-9.359,-0.006,0.011,-0.02
159997,1.556,-0.041,-9.371,-0.006,0.011,-0.02
160100,1.547,-0.045,-9.354,-0.007,0.011,-0.02
160203,1.544,-0.055,-9.354,-0.007,0.011,-0.021
160306,1.554,-0.05,-9.349,-0.007,0.011,-0.02
160409,1.551,-0.048,-9.357,-0.007,0.011,-0.021
160512,1.551,-0.048,-9.359,-0.007,0.011,-0.02
160615,1.537,-0.041,-9.349,-0.006,0.011,-0.02
160718,1.549,-0.045,-9.359,-0.007,0.011,-0.021
160821,1.551,-0.045,-9.357,-0.007,0.011,-0.021
160924,1.547,-0.038,-9.342,-0.006,0.011,-0.02
161027,1.556,-0.041,-9.345,-0.007,0.011,-0.021
161130,1.559,-0.041,-9.347,-0.006,0.011,-0.02
161233,1.551,-0.053,-9.364,-0.007,0.011,-0.02
161336,1.559,-0.041,-9.359,-0.007,0.011,-0.02
161439,1.551,-0.041,-9.349,-0.007,0.011,-0.02
161542,1.547,-0.041,-9.371,-0.007,0.011,-0.021
161645,1.551,-0.053,-9.354,-0.006,0.012,-0.021
161748,1.554,-0.045,-9.364,-0.007,0.011,-0.02
161851,1.549,-0.034,-9.373,-0.007,0.012,-0.02
161954,1.549,-0.053,-9.373,-0.007,0.011,-0.02
162057,1.547,-0.048,-9.359,-0.007,0.011,-0.02
162160,1.556,-0.043,-9.357,-0.007,0.011,-0.02
162263,1.547,-0.036,-9.369,-0.007,0.011,-0.02
162366,1.551,-0.045,-9.349,-0.007,0.011,-0.02
162469,1.561,-0.05,-9.345,-0.007,0.011,-0.02
162572,1.549,-0.048,-9.347,-0.007,0.011,-0.02
162675,1.549,-0.05,-9.357,-0.007,0.011,-0.02
162778,1.556,-0.045,-9.361,-0.007,0.011,-0.021
162881,1.547,-0.053,-9.357,-0.006,0.011,-0.021
162984,1.554,-0.045,-9.364,-0.007,0.011,-0.02
163087,1.554,-0.048,-9.364,-0.007,0.011,-0.02
163190,1.547,-0.055,-9.357,-0.006,0.011,-0.021
163293,1.554,-0.053,-9.366,-0.007,0.011,-0.02
163396,1.556,-0.055,-9.349,-0.007,0.011,-0.02
163499,1.551,-0.053,-9.354,-0.007,0.011,-0.02
163602,1.561,-0.045,-9.349,-0.007,0.011,-0.021
163705,1.556,-0.043,-9.349,-0.006,0.011,-0.02
163808,1.551,-0.048,-9.371,-0.007,0.011,-0.02
163911,1.554,-0.048,-9.352,-0.007,0.011,-0.02
164014,1.544,-0.05,-9.345,-0.007,0.011,-0.021
164117,1.549,-0.041,-9.361,-0.007,0.011,-0.021
164220,1.549,-0.045,-9.349,-0.007,0.011,-0.02
164323,1.544,-0.048,-9.357,-0.007,0.011,-0.02
164426,1.551,-0.045,-9.352,-0.007,0.011,-0.02
164529,1.556,-0.05,-9.354,-0.007,0.011,-0.02
164632,1.549,-0.043,-9.357,-0.007,0.011,-0.02
164735,1.554,-0.048,-9.357,-0.007,0.011,-0.02
164838,1.554,-0.048,-9.352,-0.006,0.011,-0.02
164941,1.551,-0.05,-9.366,-0.007,0.011,-0.021
165044,1.554,-0.043,-9.354,-0.006,0.011,-0.02
165147,1.542,-0.034,-9.342,-0.007,0.011,-0.02
165250,1.547,-0.045,-9.349,-0.007,0.01,-0.021
165353,1.547,-0.05,-9.364,-0.007,0.011,-0.019
165456,1.559,-0.041,-9.349,-0.007,0.011,-0.02
165559,1.554,-0.038,-9.376,-0.007,0.011,-0.021
165662,1.554,-0.043,-9.347,-0.007,0.011,-0.02
165765,1.547,-0.05,-9.345,-0.007,0.011,-0.021
165868,1.559,-0.045,-9.357,-0.007,0.01,-0.021
165971,1.554,-0.053,-9.345,-0.007,0.011,-0.02
166074,1.544,-0.043,-9.357,-0.007,0.011,-0.02
166177,1.556,-0.036,-9.357,-0.007,0.011,-0.02
166280,1.547,-0.048,-9.345,-0.007,0.011,-0.02
166383,1.568,-0.043,-9.354,-0.007,0.011,-0.021
166486,1.556,-0.036,-9.349,-0.006,0.011,-0.02
166589,1.539,-0.038,-9.354,-0.007,0.011,-0.021
166692,1.559,-0.043,-9.354,-0.007,0.011,-0.02
166795,1.559,-0.038,-9.369,-0.006,0.011,-0.02
166898,1.561,-0.05,-9.354,-0.007,0.011,-0.021
167001,1.551,-0.055,-9.369,-0.007,0.011,-0.02
167104,1.542,-0.053,-9.357,-0.007,0.011,-0.02
167207,1.549,-0.041,-9.361,-0.006,0.011,-0.02
167310,1.539,-0.038,-9.349,-0.007,0.011,-0.02
167413,1.544,-0.045,-9.361,-0.007,0.011,-0.02
167516,1.547,-0.036,-9.359,-0.007,0.011,-0.02
167619,1.544,-0.043,-9.345,-0.007,0.011,-0.02
167722,1.544,-0.048,-9.347,-0.007,0.011,-0.02
167825,1.551,-0.055,-9.371,-0.007,0.011,-0.02
167928,1.542,-0.045,-9.349,-0.007,0.011,-0.02
168031,1.556,-0.045,-9.366,-0.007,0.011,-0.021
168134,1.556,-0.041,-9.354,-0.007,0.011,-0.02
168237,1.544,-0.041,-9.352,-0.007,0.011,-0.021
168340,1.556,-0.045,-9.359,-0.007,0.011,-0.021
168443,1.547,-0.055,-9.373,-0.007,0.011,-0.021
168546,1.551,-0.045,-9.357,-0.006,0.011,-0.021
168649,1.549,-0.05,-9.347,-0.007,0.011,-0.02
168752,1.542,-0.048,-9.349,-0.007,0.011,-0.021
168855,1.547,-0.05,-9.357,-0.007,0.011,-0.021
168958,1.551,-0.05,-9.357,-0.007,0.011,-0.02
169061,1.539,-0.041,-9.359,-0.006,0.011,-0.02
169164,1.559,-0.043,-9.373,-0.007,0.011,-0.021
169267,1.559,-0.043,-9.359,-0.006,0.011,-0.02
169370,1.542,-0.05,-9.354,-0.007,0.011,-0.02
169473,1.554,-0.048,-9.364,-0.007,0.011,-0.021
169576,1.539,-0.045,-9.354,-0.006,0.011,-0.021
169679,1.556,-0.053,-9.34,-0.007,0.011,-0.02
169782,1.549,-0.048,-9.361,-0.007,0.011,-0.02
169885,1.549,-0.045,-9.349,-0.007,0.011,-0.02
169988,1.537,-0.053,-9.349,-0.007,0.011,-0.02
170091,1.554,-0.048,-9.364,-0.007,0.011,-0.02
170194,1.551,-0.041,-9.357,-0.006,0.011,-0.02
170297,1.544,-0.043,-9.364,-0.007,0.011,-0.02
170400,1.556,-0.05,-9.364,-0.007,0.01,-0.02
170503,1.554,-0.048,-9.369,-0.007,0.011,-0.02
170606,1.551,-0.048,-9.349,-0.007,0.011,-0.021
170709,1.547,-0.043,-9.354,-0.007,0.011,-0.02
170812,1.544,-0.057,-9.369,-0.006,0.011,-0.021
170915,1.563,-0.038,-9.369,-0.007,0.011,-0.02
171018,1.551,-0.041,-9.357,-0.007,0.011,-0.02
171121,1.559,-0.05,-9.347,-0.007,0.012,-0.021
171224,1.544,-0.041,-9.354,-0.007,0.011,-0.02
171327,1.544,-0.048,-9.349,-0.006,0.011,-0.021
171430,1.549,-0.045,-9.369,-0.006,0.011,-0.021
171533,1.556,-0.045,-9.361,-0.007,0.011,-0.02
171636,1.554,-0.057,-9.357,-0.007,0.011,-0.02
171739,1.559,-0.038,-9.354,-0.007,0.011,-0.021
171842,1.547,-0.045,-9.354,-0.007,0.011,-0.021
171945,1.549,-0.05,-9.373,-0.007,0.011,-0.02
172048,1.549,-0.036,-9.366,-0.007,0.011,-0.02
172151,1.549,-0.048,-9.354,-0.007,0.011,-0.021
172254,1.561,-0.038,-9.373,-0.007,0.011,-0.021
172357,1.549,-0.031,-9.366,-0.007,0.011,-0.02
172460,1.556,-0.053,-9.345,-0.006,0.011,-0.02
172563,1.563,-0.034,-9.349,-0.007,0.011,-0.02
172666,1.544,-0.048,-9.357,-0.006,0.011,-0.02
172769,1.542,-0.038,-9.354,-0.007,0.011,-0.02
172872,1.551,-0.043,-9.352,-0.006,0.011,-0.021
172975,1.549,-0.05,-9.366,-0.006,0.011,-0.02
173078,1.559,-0.05,-9.359,-0.007,0.011,-0.021
173181,1.551,-0.034,-9.364,-0.007,0.011,-0.02
173284,1.547,-0.043,-9.371,-0.006,0.011,-0.02
173387,1.549,-0.045,-9.357,-0.007,0.011,-0.02
173490,1.556,-0.045,-9.366,-0.007,0.01,-0.02
173593,1.551,-0.053,-9.357,-0.007,0.011,-0.02
173696,1.559,-0.038,-9.361,-0.007,0.011,-0.021
173799,1.539,-0.055,-9.359,-0.006,0.011,-0.02
173902,1.549,-0.038,-9.359,-0.007,0.011,-0.021
174005,1.559,-0.038,-9.359,-0.007,0.011,-0.02
174108,1.549,-0.043,-9.364,-0.007,0.011,-0.02
174211,1.551,-0.043,-9.342,-0.007,0.011,-0.02
174314,1.554,-0.045,-9.364,-0.007,0.011,-0.02
174417,1.556,-0.045,-9.357,-0.007,0.011,-0.02
174520,1.561,-0.045,-9.347,-0.007,0.011,-0.02
174623,1.554,-0.043,-9.349,-0.007,0.011,-0.02
174726,1.542,-0.045,-9.347,-0.007,0.011,-0.021
174829,1.559,-0.043,-9.373,-0.007,0.012,-0.02
174932,1.549,-0.045,-9.354,-0.007,0.011,-0.02
175035,1.547,-0.045,-9.359,-0.007,0.011,-0.02
175138,1.549,-0.048,-9.359,-0.007,0.011,-0.02
175241,1.547,-0.041,-9.342,-0.007,0.011,-0.02
175344,1.542,-0.043,-9.376,-0.007,0.011,-0.02
175447,1.554,-0.05,-9.357,-0.007,0.011,-0.02
175550,1.544,-0.038,-9.364,-0.006,0.011,-0.02
175653,1.549,-0.043,-9.364,-0.007,0.011,-0.021
175756,1.551,-0.043,-9.354,-0.007,0.011,-0.02
175859,1.547,-0.048,-9.364,-0.007,0.011,-0.021
175962,1.551,-0.05,-9.371,-0.007,0.011,-0.021
176065,1.544,-0.048,-9.357,-0.006,0.011,-0.02
176168,1.542,-0.041,-9.347,-0.007,0.011,-0.02
176271,1.549,-0.045,-9.359,-0.007,0.011,-0.02
176374,1.549,-0.045,-9.359,-0.006,0.011,-0.02
176477,1.556,-0.043,-9.357,-0.007,0.011,-0.02
176580,1.551,-0.05,-9.359,-0.006,0.011,-0.02
176683,1.549,-0.041,-9.357,-0.006,0.011,-0.02
176786,1.549,-0.038,-9.361,-0.007,0.011,-0.02
176889,1.559,-0.048,-9.34,-0.007,0.011,-0.02
176992,1.554,-0.048,-9.349,-0.007,0.011,-0.021
177095,1.556,-0.05,-9.366,-0.006,0.011,-0.02
177198,1.551,-0.045,-9.369,-0.006,0.011,-0.02
177301,1.549,-0.048,-9.354,-0.006,0.011,-0.02
177404,1.556,-0.05,-9.359,-0.007,0.011,-0.02
177507,1.539,-0.041,-9.357,-0.007,0.011,-0.021
177610,1.554,-0.038,-9.354,-0.006,0.011,-0.02
177713,1.547,-0.043,-9.364,-0.006,0.011,-0.021
177816,1.542,-0.045,-9.347,-0.007,0.011,-0.021
177919,1.556,-0.048,-9.359,-0.007,0.011,-0.02
178022,1.544,-0.043,-9.364,-0.007,0.011,-0.021
178125,1.556,-0.045,-9.364,-0.006,0.011,-0.021
178228,1.556,-0.05,-9.361,-0.007,0.011,-0.02
178331,1.549,-0.048,-9.359,-0.007,0.011,-0.02
178434,1.554,-0.055,-9.349,-0.007,0.011,-0.021
178537,1.554,-0.036,-9.354,-0.007,0.011,-0.02
178640,1.542,-0.045,-9.361,-0.006,0.011,-0.021
178743,1.556,-0.053,-9.352,-0.007,0.011,-0.021
178846,1.544,-0.045,-9.352,-0.007,0.011,-0.02
178949,1.547,-0.043,-9.369,-0.007,0.011,-0.02
179052,1.554,-0.031,-9.369,-0.007,0.011,-0.021
179155,1.539,-0.055,-9.34,-0.006,0.011,-0.02
179258,1.556,-0.048,-9.366,-0.007,0.011,-0.02
179361,1.554,-0.05,-9.369,-0.007,0.011,-0.02
179464,1.537,-0.05,-9.369,-0.007,0.011,-0.02
179567,1.566,-0.041,-9.354,-0.007,0.011,-0.021
179670,1.556,-0.048,-9.364,-0.007,0.011,-0.02
179773,1.547,-0.048,-9.349,-0.006,0.011,-0.021
179876,1.554,-0.045,-9.361,-0.007,0.011,-0.021
179979,1.549,-0.041,-9.354,-0.007,0.011,-0.02
180082,1.547,-0.055,-9.359,-0.007,0.011,-0.021
180185,1.554,-0.041,-9.364,-0.007,0.011,-0.02
180288,1.542,-0.045,-9.357,-0.007,0.011,-0.02
180391,1.556,-0.045,-9.359,-0.007,0.01,-0.021
180494,1.563,-0.048,-9.369,-0.007,0.011,-0.02
180597,1.544,-0.05,-9.359,-0.007,0.011,-0.021
180700,1.556,-0.038,-9.366,-0.007,0.011,-0.021
180803,1.551,-0.048,-9.352,-0.006,0.011,-0.021
180906,1.554,-0.041,-9.361,-0.007,0.011,-0.021
181009,1.463,-0.05,-9.318,0.011,0.337,-0.014
181112,1.832,-0.065,-9.318,-0.003,0.065,-0.018
181215,1.822,-0.069,-9.306,-0.007,0.014,-0.021
181318,1.832,-0.065,-9.306,-0.006,0.011,-0.02
181421,1.824,-0.057,-9.306,-0.007,0.012,-0.02
181524,1.824,-0.065,-9.318,-0.007,0.011,-0.02
181627,1.824,-0.055,-9.297,-0.007,0.011,-0.02
181730,1.817,-0.062,-9.304,-0.006,0.011,-0.021
181833,1.827,-0.074,-9.309,-0.007,0.011,-0.02
181936,1.817,-0.067,-9.306,-0.007,0.011,-0.02
182039,1.8,-0.062,-9.309,-0.007,0.011,-0.02
182142,1.836,-0.055,-9.313,-0.007,0.011,-0.02
182245,1.815,-0.069,-9.301,-0.006,0.011,-0.02
182348,1.836,-0.057,-9.304,-0.007,0.011,-0.021
182451,1.822,-0.067,-9.306,-0.007,0.011,-0.021
182554,1.817,-0.067,-9.318,-0.007,0.011,-0.02
182657,1.839,-0.062,-9.309,-0.007,0.011,-0.02
182760,1.817,-0.055,-9.318,-0.007,0.011,-0.02
182863,1.822,-0.067,-9.306,-0.007,0.011,-0.02
182966,1.836,-0.062,-9.309,-0.007,0.011,-0.02
183069,1.81,-0.067,-9.304,-0.007,0.011,-0.02
183172,1.822,-0.065,-9.301,-0.007,0.011,-0.021
183275,1.829,-0.062,-9.304,-0.007,0.011,-0.02
183378,1.815,-0.062,-9.285,-0.006,0.011,-0.02
183481,1.824,-0.067,-9.316,-0.007,0.011,-0.02
183584,1.829,-0.062,-9.309,-0.007,0.011,-0.02
183687,1.817,-0.057,-9.292,-0.007,0.012,-0.02
183790,1.827,-0.06,-9.299,-0.007,0.011,-0.021
183893,1.824,-0.062,-9.306,-0.007,0.011,-0.02
183996,1.829,-0.072,-9.325,-0.007,0.011,-0.02
184099,1.827,-0.062,-9.306,-0.007,0.011,-0.02
184202,1.822,-0.067,-9.306,-0.007,0.011,-0.02
184305,1.834,-0.055,-9.301,-0.007,0.011,-0.02
184408,1.832,-0.069,-9.306,-0.006,0.011,-0.02
184511,1.815,-0.067,-9.321,-0.007,0.011,-0.02
184614,1.827,-0.057,-9.304,-0.007,0.011,-0.021
184717,1.82,-0.055,-9.309,-0.006,0.011,-0.02
184820,1.822,-0.06,-9.306,-0.007,0.011,-0.02
184923,1.832,-0.072,-9.321,-0.007,0.011,-0.021
185026,1.812,-0.065,-9.313,-0.007,0.011,-0.02
185129,1.815,-0.067,-9.318,-0.007,0.011,-0.021
185232,1.82,-0.072,-9.318,-0.006,0.011,-0.02
185335,1.817,-0.072,-9.297,-0.007,0.011,-0.02
185438,1.82,-0.055,-9.306,-0.007,0.011,-0.021
185541,1.824,-0.067,-9.294,-0.006,0.011,-0.02
185644,1.81,-0.067,-9.292,-0.007,0.011,-0.02
185747,1.824,-0.062,-9.29,-0.007,0.011,-0.02
185850,1.808,-0.062,-9.297,-0.007,0.011,-0.02
185953,1.829,-0.072,-9.297,-0.007,0.011,-0.02
186056,1.824,-0.057,-9.301,-0.006,0.011,-0.02
186159,1.817,-0.06,-9.313,-0.006,0.011,-0.02
186262,1.824,-0.06,-9.294,-0.007,0.011,-0.021
186365,1.836,-0.067,-9.321,-0.007,0.011,-0.02
186468,1.808,-0.069,-9.311,-0.007,0.011,-0.02
186571,1.822,-0.069,-9.309,-0.007,0.011,-0.02
186674,1.824,-0.067,-9.309,-0.007,0.011,-0.02
186777,1.824,-0.062,-9.306,-0.007,0.011,-0.02
186880,1.836,-0.06,-9.309,-0.007,0.011,-0.021
186983,1.82,-0.067,-9.292,-0.007,0.011,-0.02
187086,1.82,-0.067,-9.318,-0.007,0.011,-0.02
187189,1.829,-0.065,-9.316,-0.007,0.011,-0.02
187292,1.82,-0.062,-9.304,-0.007,0.011,-0.02
187395,1.824,-0.065,-9.301,-0.007,0.011,-0.02
187498,1.822,-0.062,-9.306,-0.007,0.011,-0.02
187601,1.836,-0.065,-9.309,-0.006,0.011,-0.02
187704,1.824,-0.062,-9.292,-0.007,0.011,-0.02
187807,1.829,-0.06,-9.311,-0.007,0.011,-0.02
187910,1.82,-0.062,-9.292,-0.007,0.011,-0.021
188013,1.812,-0.057,-9.301,-0.007,0.011,-0.02
188116,1.812,-0.069,-9.301,-0.007,0.011,-0.02
188219,1.824,-0.06,-9.316,-0.007,0.011,-0.02
188322,1.832,-0.06,-9.311,-0.007,0.011,-0.021
188425,1.822,-0.074,-9.311,-0.007,0.011,-0.021
188528,1.832,-0.06,-9.304,-0.007,0.011,-0.02
188631,1.829,-0.062,-9.313,-0.007,0.011,-0.02
188734,1.815,-0.065,-9.306,-0.007,0.011,-0.02
188837,1.824,-0.062,-9.309,-0.007,0.011,-0.02
188940,1.822,-0.067,-9.309,-0.007,0.011,-0.02
189043,1.829,-0.06,-9.318,-0.007,0.011,-0.02
189146,1.834,-0.06,-9.313,-0.007,0.011,-0.021
189249,1.822,-0.062,-9.294,-0.007,0.011,-0.02
189352,1.827,-0.067,-9.321,-0.007,0.011,-0.02
189455,1.829,-0.062,-9.325,-0.007,0.011,-0.02
189558,1.822,-0.062,-9.306,-0.007,0.011,-0.021
189661,1.817,-0.065,-9.309,-0.007,0.011,-0.021
189764,1.815,-0.06,-9.318,-0.006,0.01,-0.02
189867,1.817,-0.055,-9.299,-0.007,0.011,-0.02
189970,1.834,-0.057,-9.299,-0.006,0.011,-0.02
190073,1.829,-0.067,-9.306,-0.007,0.011,-0.02
190176,1.822,-0.053,-9.306,-0.007,0.011,-0.02
190279,1.822,-0.069,-9.313,-0.007,0.011,-0.02
190382,1.824,-0.074,-9.313,-0.007,0.011,-0.02
190485,1.824,-0.077,-9.301,-0.007,0.011,-0.02
190588,1.834,-0.067,-9.29,-0.007,0.011,-0.02
190691,1.827,-0.065,-9.301,-0.007,0.011,-0.02
190794,1.832,-0.057,-9.304,-0.007,0.011,-0.02
190897,1.822,-0.062,-9.301,-0.007,0.011,-0.02
191000,1.817,-0.077,-9.292,-0.007,0.011,-0.021
191103,1.829,-0.065,-9.311,-0.006,0.01,-0.021
191206,1.812,-0.069,-9.313,-0.006,0.011,-0.02
191309,1.822,-0.067,-9.306,-0.007,0.011,-0.021
191412,1.827,-0.06,-9.301,-0.007,0.011,-0.02
191515,1.824,-0.065,-9.311,-0.007,0.011,-0.02
191618,1.829,-0.067,-9.311,-0.007,0.011,-0.021
191721,1.82,-0.065,-9.292,-0.007,0.011,-0.02
191824,1.817,-0.072,-9.306,-0.006,0.011,-0.02
191927,1.834,-0.055,-9.313,-0.007,0.011,-0.02
192030,1.817,-0.077,-9.309,-0.006,0.011,-0.02
192133,1.827,-0.069,-9.297,-0.007,0.011,-0.021
192236,1.827,-0.069,-9.294,-0.007,0.011,-0.02
192339,1.815,-0.065,-9.301,-0.007,0.011,-0.02
192442,1.827,-0.06,-9.316,-0.007,0.011,-0.02
192545,1.812,-0.062,-9.325,-0.007,0.011,-0.02
192648,1.82,-0.067,-9.309,-0.007,0.011,-0.021
192751,1.827,-0.065,-9.316,-0.007,0.011,-0.021
192854,1.82,-0.057,-9.301,-0.007,0.011,-0.02
192957,1.82,-0.067,-9.287,-0.007,0.011,-0.021
193060,1.832,-0.077,-9.316,-0.007,0.011,-0.021
193163,1.829,-0.057,-9.301,-0.006,0.011,-0.02
193266,1.82,-0.065,-9.294,-0.007,0.011,-0.02
193369,1.824,-0.055,-9.292,-0.007,0.011,-0.02
193472,1.824,-0.065,-9.304,-0.007,0.011,-0.021
193575,1.832,-0.057,-9.299,-0.007,0.011,-0.021
193678,1.822,-0.062,-9.282,-0.007,0.011,-0.02
193781,1.824,-0.067,-9.294,-0.007,0.011,-0.021
193884,1.822,-0.069,-9.285,-0.007,0.011,-0.02
193987,1.824,-0.057,-9.313,-0.007,0.011,-0.021
194090,1.822,-0.065,-9.301,-0.007,0.011,-0.02
194193,1.827,-0.057,-9.294,-0.006,0.011,-0.02
194296,1.815,-0.055,-9.306,-0.007,0.011,-0.02
194399,1.829,-0.062,-9.313,-0.007,0.011,-0.02
194502,1.827,-0.055,-9.292,-0.007,0.011,-0.02
194605,1.822,-0.069,-9.304,-0.007,0.011,-0.02
194708,1.827,-0.065,-9.311,-0.007,0.011,-0.02
194811,1.82,-0.065,-9.297,-0.007,0.011,-0.02
194914,1.822,-0.072,-9.311,-0.007,0.011,-0.02
195017,1.829,-0.062,-9.301,-0.007,0.011,-0.021
195120,1.824,-0.072,-9.299,-0.007,0.011,-0.02
195223,1.827,-0.069,-9.292,-0.007,0.011,-0.02
195326,1.824,-0.062,-9.306,-0.007,0.011,-0.02
195429,1.82,-0.057,-9.29,-0.007,0.011,-0.021
195532,1.822,-0.062,-9.325,-0.007,0.011,-0.02
195635,1.82,-0.067,-9.299,-0.007,0.011,-0.019
195738,1.829,-0.062,-9.304,-0.007,0.011,-0.02
195841,1.834,-0.062,-9.311,-0.007,0.011,-0.02
195944,1.82,-0.067,-9.292,-0.007,0.011,-0.021
196047,1.824,-0.074,-9.299,-0.007,0.011,-0.021
196150,1.836,-0.069,-9.297,-0.007,0.011,-0.021
196253,1.817,-0.065,-9.304,-0.007,0.011,-0.02
196356,1.827,-0.057,-9.304,-0.007,0.011,-0.021
196459,1.817,-0.067,-9.306,-0.006,0.011,-0.02
196562,1.822,-0.069,-9.294,-0.007,0.011,-0.021
196665,1.824,-0.06,-9.318,-0.007,0.011,-0.021
196768,1.82,-0.065,-9.309,-0.007,0.011,-0.02
196871,1.82,-0.06,-9.306,-0.007,0.011,-0.02
196974,1.829,-0.067,-9.306,-0.007,0.011,-0.02
197077,1.824,-0.062,-9.294,-0.007,0.011,-0.02
197180,1.824,-0.072,-9.304,-0.007,0.011,-0.021
197283,1.824,-0.067,-9.299,-0.007,0.011,-0.02
197386,1.829,-0.062,-9.301,-0.007,0.011,-0.02
197489,1.834,-0.062,-9.297,-0.007,0.011,-0.02
197592,1.82,-0.065,-9.306,-0.007,0.011,-0.021
197695,1.82,-0.057,-9.301,-0.007,0.011,-0.021
197798,1.832,-0.06,-9.304,-0.007,0.011,-0.021
197901,1.82,-0.06,-9.306,-0.007,0.011,-0.021
198004,1.817,-0.069,-9.29,-0.007,0.011,-0.02
198107,1.822,-0.065,-9.311,-0.007,0.011,-0.02
198210,1.829,-0.067,-9.297,-0.007,0.011,-0.02
198313,1.824,-0.055,-9.306,-0.007,0.011,-0.02
198416,1.824,-0.055,-9.316,-0.007,0.011,-0.02
198519,1.82,-0.069,-9.301,-0.007,0.011,-0.02
198622,1.836,-0.067,-9.311,-0.007,0.011,-0.021
198725,1.822,-0.062,-9.321,-0.007,0.011,-0.02
198828,1.817,-0.057,-9.311,-0.007,0.011,-0.02
198931,1.834,-0.062,-9.301,-0.007,0.011,-0.02
199034,1.822,-0.065,-9.309,-0.007,0.011,-0.02
199137,1.82,-0.06,-9.294,-0.007,0.011,-0.021
199240,1.822,-0.062,-9.297,-0.007,0.011,-0.02
199343,1.822,-0.06,-9.285,-0.007,0.011,-0.02
199446,1.829,-0.065,-9.316,-0.007,0.011,-0.02
199549,1.812,-0.06,-9.311,-0.007,0.011,-0.021
199652,1.822,-0.069,-9.304,-0.007,0.011,-0.02
199755,1.829,-0.065,-9.309,-0.006,0.011,-0.021
199858,1.824,-0.074,-9.301,-0.007,0.011,-0.02
199961,1.815,-0.06,-9.299,-0.007,0.011,-0.021
200064,1.824,-0.069,-9.313,-0.006,0.011,-0.02
200167,1.817,-0.062,-9.299,-0.006,0.011,-0.02
200270,1.817,-0.065,-9.309,-0.007,0.011,-0.021
200373,1.822,-0.062,-9.323,-0.006,0.011,-0.02
200476,1.827,-0.074,-9.306,-0.007,0.011,-0.02
200579,1.817,-0.057,-9.287,-0.007,0.011,-0.021
200682,1.824,-0.067,-9.309,-0.007,0.011,-0.02
200785,1.827,-0.06,-9.294,-0.007,0.011,-0.021
200888,1.827,-0.072,-9.301,-0.007,0.011,-0.021
200991,1.808,-0.06,-9.306,-0.007,0.011,-0.02
201094,1.822,-0.069,-9.306,-0.007,0.011,-0.021
201197,1.817,-0.067,-9.309,-0.007,0.011,-0.021
201300,1.82,-0.06,-9.318,-0.006,0.011,-0.02
201403,1.827,-0.057,-9.311,-0.007,0.011,-0.02
201506,1.834,-0.074,-9.299,-0.006,0.011,-0.02
201609,1.815,-0.065,-9.299,-0.007,0.011,-0.021
201712,1.822,-0.055,-9.325,-0.007,0.011,-0.02
201815,1.812,-0.067,-9.299,-0.007,0.011,-0.02
201918,1.824,-0.065,-9.313,-0.007,0.011,-0.021
202021,1.836,-0.065,-9.309,-0.007,0.011,-0.02
202124,1.82,-0.06,-9.309,-0.006,0.011,-0.02
202227,1.82,-0.062,-9.316,-0.007,0.011,-0.02
202330,1.834,-0.053,-9.313,-0.006,0.011,-0.02
202433,1.822,-0.067,-9.301,-0.006,0.01,-0.02
202536,1.824,-0.065,-9.304,-0.007,0.011,-0.021
202639,1.82,-0.06,-9.304,-0.006,0.011,-0.02
202742,1.817,-0.055,-9.304,-0.007,0.011,-0.02
202845,1.829,-0.069,-9.316,-0.007,0.011,-0.021
202948,1.824,-0.065,-9.306,-0.007,0.011,-0.02
203051,1.812,-0.065,-9.311,-0.007,0.011,-0.02
203154,1.815,-0.06,-9.321,-0.007,0.011,-0.02
203257,1.827,-0.067,-9.304,-0.006,0.011,-0.021
203360,1.832,-0.057,-9.301,-0.007,0.011,-0.02
203463,1.829,-0.065,-9.311,-0.007,0.011,-0.02
203566,1.82,-0.072,-9.306,-0.006,0.011,-0.02
203669,1.829,-0.065,-9.304,-0.007,0.012,-0.02
203772,1.829,-0.055,-9.304,-0.007,0.011,-0.02
203875,1.824,-0.062,-9.311,-0.007,0.011,-0.02
203978,1.822,-0.062,-9.318,-0.007,0.012,-0.02
204081,1.82,-0.053,-9.309,-0.006,0.011,-0.02
204184,1.829,-0.06,-9.297,-0.006,0.011,-0.02
204287,1.827,-0.069,-9.313,-0.007,0.011,-0.02
204390,1.82,-0.06,-9.304,-0.006,0.011,-0.02
204493,1.827,-0.069,-9.304,-0.007,0.011,-0.021
204596,1.822,-0.067,-9.292,-0.007,0.011,-0.02
204699,1.829,-0.065,-9.297,-0.006,0.011,-0.02
204802,1.827,-0.067,-9.325,-0.007,0.011,-0.021
204905,1.824,-0.067,-9.316,-0.007,0.01,-0.02
205008,1.822,-0.077,-9.306,-0.007,0.011,-0.021
205111,1.827,-0.067,-9.301,-0.007,0.011,-0.02
205214,1.827,-0.06,-9.309,-0.007,0.011,-0.02
205317,1.822,-0.06,-9.309,-0.007,0.011,-0.02
205420,1.824,-0.069,-9.328,-0.007,0.011,-0.021
205523,1.815,-0.062,-9.309,-0.007,0.011,-0.02
205626,1.817,-0.06,-9.299,-0.007,0.011,-0.021
205729,1.817,-0.067,-9.318,-0.007,0.011,-0.02
205832,1.81,-0.062,-9.306,-0.007,0.011,-0.02
205935,1.829,-0.062,-9.325,-0.007,0.011,-0.02
206038,1.824,-0.065,-9.29,-0.007,0.011,-0.02
206141,1.822,-0.057,-9.304,-0.007,0.011,-0.02
206244,1.829,-0.062,-9.309,-0.007,0.011,-0.021
206347,1.812,-0.062,-9.297,-0.007,0.011,-0.02
206450,1.82,-0.062,-9.292,-0.007,0.011,-0.02
206553,1.824,-0.069,-9.306,-0.007,0.011,-0.021
206656,1.82,-0.062,-9.304,-0.006,0.011,-0.02
206759,1.832,-0.072,-9.304,-0.007,0.011,-0.02
206862,1.82,-0.055,-9.311,-0.007,0.011,-0.02
206965,1.817,-0.077,-9.309,-0.007,0.011,-0.02
207068,1.832,-0.067,-9.316,-0.007,0.011,-0.02
207171,1.82,-0.069,-9.316,-0.007,0.011,-0.021
207274,1.824,-0.062,-9.294,-0.007,0.011,-0.021
207377,1.827,-0.062,-9.311,-0.007,0.011,-0.021
207480,1.82,-0.057,-9.297,-0.006,0.011,-0.021
207583,1.812,-0.079,-9.294,-0.007,0.011,-0.021
207686,1.832,-0.067,-9.306,-0.007,0.01,-0.02
207789,1.815,-0.065,-9.297,-0.007,0.011,-0.019
207892,1.824,-0.069,-9.309,-0.007,0.011,-0.02
207995,1.822,-0.065,-9.311,-0.007,0.011,-0.02
208098,1.817,-0.072,-9.311,-0.007,0.011,-0.02
208201,1.829,-0.055,-9.309,-0.007,0.011,-0.02
208304,1.822,-0.069,-9.301,-0.006,0.011,-0.02
208407,1.815,-0.06,-9.306,-0.007,0.011,-0.021
208510,1.827,-0.065,-9.318,-0.007,0.011,-0.02
208613,1.82,-0.067,-9.309,-0.007,0.011,-0.021
208716,1.82,-0.067,-9.306,-0.007,0.011,-0.02
208819,1.817,-0.065,-9.306,-0.007,0.011,-0.02
208922,1.832,-0.065,-9.294,-0.007,0.011,-0.02
209025,1.817,-0.067,-9.306,-0.007,0.011,-0.02
209128,1.812,-0.062,-9.321,-0.007,0.011,-0.02
209231,1.815,-0.067,-9.313,-0.006,0.011,-0.021
209334,1.824,-0.05,-9.313,-0.007,0.011,-0.02
209437,1.82,-0.057,-9.297,-0.007,0.011,-0.02
209540,1.834,-0.057,-9.299,-0.007,0.011,-0.021
209643,1.832,-0.062,-9.299,-0.007,0.011,-0.02
209746,1.817,-0.06,-9.311,-0.007,0.011,-0.02
209849,1.822,-0.069,-9.294,-0.007,0.011,-0.021
209952,1.822,-0.062,-9.29,-0.007,0.011,-0.02
210055,1.829,-0.057,-9.304,-0.007,0.012,-0.02
210158,1.832,-0.06,-9.311,-0.007,0.011,-0.02
210261,1.822,-0.062,-9.309,-0.006,0.011,-0.02
210364,1.822,-0.062,-9.294,-0.007,0.011,-0.021
210467,1.827,-0.055,-9.292,-0.007,0.011,-0.02
210570,1.82,-0.067,-9.304,-0.007,0.011,-0.02
210673,1.822,-0.06,-9.304,-0.007,0.011,-0.02
210776,1.824,-0.065,-9.309,-0.007,0.011,-0.02
210879,1.827,-0.06,-9.285,-0.007,0.011,-0.02
210982,1.832,-0.06,-9.309,-0.007,0.011,-0.02
211085,1.815,-0.062,-9.316,-0.006,0.011,-0.02
211188,1.817,-0.062,-9.309,-0.007,0.011,-0.021
211291,1.824,-0.065,-9.316,-0.007,0.011,-0.021
211394,1.815,-0.062,-9.297,-0.007,0.011,-0.02
211497,1.812,-0.065,-9.313,-0.007,0.011,-0.021
211600,1.827,-0.053,-9.311,-0.007,0.011,-0.02
211703,1.82,-0.067,-9.306,-0.006,0.011,-0.02
211806,1.829,-0.069,-9.313,-0.007,0.011,-0.02
211909,1.82,-0.057,-9.299,-0.007,0.011,-0.02
212012,1.822,-0.055,-9.299,-0.007,0.011,-0.021
212115,1.82,-0.069,-9.309,-0.007,0.011,-0.02
212218,1.822,-0.069,-9.294,-0.007,0.011,-0.02
212321,1.836,-0.057,-9.299,-0.007,0.011,-0.02
212424,1.834,-0.062,-9.321,-0.006,0.011,-0.02
212527,1.815,-0.057,-9.299,-0.007,0.011,-0.02
212630,1.822,-0.065,-9.316,-0.007,0.011,-0.021
212733,1.827,-0.062,-9.309,-0.006,0.011,-0.019
212836,1.822,-0.077,-9.299,-0.007,0.011,-0.021
212939,1.829,-0.053,-9.309,-0.007,0.011,-0.02
213042,1.832,-0.065,-9.294,-0.006,0.011,-0.02
213145,1.822,-0.057,-9.318,-0.007,0.011,-0.021
213248,1.836,-0.062,-9.325,-0.007,0.011,-0.02
213351,1.817,-0.045,-9.311,-0.007,0.011,-0.02
213454,1.817,-0.065,-9.313,-0.007,0.011,-0.021
213557,1.834,-0.072,-9.297,-0.007,0.011,-0.02
213660,1.829,-0.072,-9.313,-0.007,0.011,-0.02
213763,1.829,-0.062,-9.321,-0.007,0.011,-0.02
213866,1.829,-0.055,-9.313,-0.006,0.011,-0.02
213969,1.82,-0.053,-9.311,-0.007,0.011,-0.021
214072,1.829,-0.06,-9.306,-0.007,0.011,-0.021
214175,1.822,-0.072,-9.294,-0.006,0.011,-0.02
214278,1.82,-0.067,-9.304,-0.007,0.011,-0.021
214381,1.827,-0.062,-9.304,-0.007,0.011,-0.02
214484,1.824,-0.057,-9.301,-0.007,0.011,-0.02
214587,1.829,-0.06,-9.294,-0.007,0.011,-0.02
214690,1.827,-0.053,-9.318,-0.007,0.01,-0.02
214793,1.822,-0.057,-9.292,-0.007,0.011,-0.02
214896,1.824,-0.065,-9.313,-0.007,0.011,-0.02
214999,1.817,-0.072,-9.304,-0.007,0.011,-0.02
215102,1.815,-0.065,-9.304,-0.007,0.011,-0.02
215205,1.832,-0.067,-9.301,-0.007,0.011,-0.02
215308,1.82,-0.06,-9.299,-0.007,0.012,-0.02
215411,1.82,-0.065,-9.306,-0.007,0.011,-0.02
215514,1.82,-0.067,-9.294,-0.007,0.011,-0.02
215617,1.817,-0.062,-9.299,-0.006,0.01,-0.02
215720,1.82,-0.06,-9.306,-0.006,0.011,-0.021
215823,1.817,-0.065,-9.323,-0.006,0.011,-0.02
215926,1.824,-0.062,-9.309,-0.007,0.011,-0.02
216029,1.829,-0.062,-9.304,-0.007,0.011,-0.02
216132,1.81,-0.062,-9.301,-0.006,0.011,-0.02
216235,1.82,-0.067,-9.304,-0.007,0.011,-0.02
216338,1.824,-0.057,-9.304,-0.007,0.011,-0.02
216441,1.822,-0.072,-9.306,-0.006,0.011,-0.02
216544,1.829,-0.06,-9.304,-0.006,0.011,-0.021
216647,1.827,-0.062,-9.301,-0.007,0.011,-0.02
216750,1.822,-0.057,-9.311,-0.006,0.011,-0.02
216853,1.824,-0.053,-9.309,-0.007,0.011,-0.02
216956,1.824,-0.06,-9.299,-0.007,0.011,-0.021
217059,1.829,-0.057,-9.306,-0.006,0.011,-0.02
217162,1.836,-0.057,-9.304,-0.007,0.011,-0.02
217265,1.815,-0.065,-9.309,-0.006,0.011,-0.02
217368,1.824,-0.069,-9.323,-0.007,0.011,-0.02
217471,1.827,-0.06,-9.321,-0.007,0.011,-0.021
217574,1.827,-0.065,-9.313,-0.007,0.011,-0.02
217677,1.817,-0.067,-9.309,-0.007,0.011,-0.02
217780,1.824,-0.055,-9.318,-0.007,0.011,-0.02
217883,1.815,-0.065,-9.311,-0.007,0.011,-0.021
217986,1.822,-0.06,-9.301,-0.007,0.011,-0.02
218089,1.815,-0.057,-9.304,-0.006,0.011,-0.02
218192,1.827,-0.067,-9.311,-0.007,0.011,-0.021
218295,1.834,-0.069,-9.299,-0.007,0.011,-0.02
218398,1.824,-0.06,-9.306,-0.006,0.011,-0.02
218501,1.822,-0.065,-9.304,-0.007,0.011,-0.021
218604,1.82,-0.057,-9.299,-0.007,0.011,-0.02
218707,1.817,-0.074,-9.297,-0.007,0.011,-0.021
218810,1.822,-0.069,-9.306,-0.007,0.012,-0.02
218913,1.82,-0.057,-9.304,-0.006,0.011,-0.019
219016,1.827,-0.065,-9.292,-0.006,0.011,-0.021
219119,1.817,-0.067,-9.313,-0.007,0.011,-0.021
219222,1.834,-0.062,-9.311,-0.007,0.011,-0.02
219325,1.817,-0.065,-9.301,-0.007,0.011,-0.021
219428,1.832,-0.067,-9.306,-0.007,0.011,-0.021
219531,1.827,-0.065,-9.297,-0.007,0.011,-0.02
219634,1.832,-0.067,-9.313,-0.007,0.011,-0.02
219737,1.815,-0.062,-9.311,-0.007,0.011,-0.02
219840,1.829,-0.065,-9.297,-0.007,0.011,-0.02
219943,1.824,-0.062,-9.292,-0.007,0.011,-0.02
220046,1.822,-0.065,-9.306,-0.007,0.011,-0.02
220149,1.829,-0.069,-9.313,-0.007,0.01,-0.021
220252,1.829,-0.067,-9.311,-0.006,0.011,-0.02
220355,1.822,-0.062,-9.301,-0.007,0.011,-0.021
220458,1.817,-0.062,-9.309,-0.007,0.011,-0.02
220561,1.817,-0.062,-9.306,-0.007,0.011,-0.02
220664,1.815,-0.072,-9.299,-0.007,0.011,-0.021
220767,1.822,-0.065,-9.306,-0.007,0.011,-0.02
220870,1.824,-0.067,-9.299,-0.006,0.011,-0.02
220973,1.817,-0.06,-9.309,-0.007,0.011,-0.02
221076,1.815,-0.06,-9.311,-0.006,0.011,-0.02
221179,1.824,-0.067,-9.29,-0.006,0.011,-0.02
221282,1.82,-0.065,-9.299,-0.007,0.011,-0.021
221385,1.827,-0.067,-9.313,-0.007,0.011,-0.02
221488,1.815,-0.067,-9.309,-0.007,0.011,-0.02
221591,1.834,-0.055,-9.301,-0.007,0.011,-0.02
221694,1.82,-0.062,-9.328,-0.007,0.011,-0.02
221797,1.817,-0.067,-9.297,-0.007,0.011,-0.021
221900,1.836,-0.062,-9.316,-0.006,0.011,-0.021
222003,1.827,-0.065,-9.301,-0.007,0.011,-0.02
222106,1.817,-0.06,-9.306,-0.007,0.011,-0.02
222209,1.827,-0.065,-9.318,-0.007,0.011,-0.02
222312,1.827,-0.067,-9.318,-0.007,0.011,-0.02
222415,1.815,-0.06,-9.301,-0.007,0.011,-0.02
222518,1.824,-0.06,-9.311,-0.007,0.011,-0.02
222621,1.817,-0.057,-9.33,-0.007,0.011,-0.02
222724,1.832,-0.06,-9.306,-0.007,0.011,-0.02
222827,1.832,-0.06,-9.318,-0.007,0.011,-0.02
222930,1.817,-0.072,-9.306,-0.007,0.011,-0.021
223033,1.829,-0.072,-9.301,-0.006,0.011,-0.021
223136,1.827,-0.06,-9.316,-0.006,0.011,-0.02
223239,1.815,-0.057,-9.299,-0.007,0.011,-0.021
223342,1.827,-0.057,-9.309,-0.007,0.011,-0.021
223445,1.812,-0.069,-9.313,-0.007,0.011,-0.021
223548,1.824,-0.065,-9.306,-0.007,0.011,-0.02
223651,1.834,-0.062,-9.301,-0.007,0.011,-0.02
223754,1.815,-0.057,-9.309,-0.007,0.011,-0.021
223857,1.817,-0.065,-9.313,-0.007,0.011,-0.02
223960,1.817,-0.06,-9.316,-0.007,0.011,-0.02
224063,1.824,-0.062,-9.301,-0.007,0.011,-0.02
224166,1.817,-0.062,-9.306,-0.007,0.011,-0.02
224269,1.82,-0.06,-9.304,-0.007,0.011,-0.02
224372,1.824,-0.06,-9.301,-0.007,0.011,-0.021
224475,1.822,-0.067,-9.311,-0.007,0.011,-0.021
224578,1.82,-0.062,-9.304,-0.006,0.011,-0.02
224681,1.822,-0.062,-9.304,-0.007,0.011,-0.02
224784,1.82,-0.065,-9.313,-0.007,0.011,-0.02
224887,1.829,-0.06,-9.309,-0.007,0.011,-0.02
224990,1.829,-0.062,-9.313,-0.007,0.011,-0.021
225093,1.817,-0.057,-9.297,-0.006,0.011,-0.02
225196,1.817,-0.053,-9.311,-0.007,0.011,-0.021
225299,1.82,-0.06,-9.321,-0.007,0.011,-0.02
225402,1.824,-0.06,-9.306,-0.006,0.011,-0.02
225505,1.834,-0.065,-9.311,-0.007,0.011,-0.02
225608,1.827,-0.062,-9.321,-0.007,0.011,-0.02
225711,1.812,-0.062,-9.316,-0.006,0.011,-0.02
225814,1.822,-0.069,-9.297,-0.007,0.011,-0.021
225917,1.808,-0.057,-9.306,-0.007,0.011,-0.02
226020,1.822,-0.067,-9.321,-0.007,0.011,-0.02
226123,1.827,-0.06,-9.316,-0.007,0.011,-0.021
226226,1.822,-0.074,-9.301,-0.007,0.011,-0.02
226329,1.824,-0.055,-9.316,-0.007,0.011,-0.021
226432,1.829,-0.053,-9.301,-0.007,0.011,-0.02
226535,1.815,-0.065,-9.306,-0.006,0.011,-0.02
226638,1.827,-0.065,-9.309,-0.007,0.011,-0.02
226741,1.822,-0.067,-9.299,-0.007,0.011,-0.02
226844,1.82,-0.06,-9.299,-0.007,0.011,-0.02
226947,1.827,-0.062,-9.301,-0.007,0.011,-0.021
227050,1.817,-0.055,-9.321,-0.007,0.011,-0.02
227153,1.824,-0.069,-9.318,-0.007,0.011,-0.021
227256,1.822,-0.06,-9.297,-0.006,0.011,-0.02
227359,1.822,-0.069,-9.297,-0.006,0.011,-0.02
227462,1.824,-0.062,-9.311,-0.007,0.011,-0.021
227565,1.822,-0.055,-9.316,-0.007,0.011,-0.02
227668,1.803,-0.06,-9.316,-0.007,0.011,-0.02
227771,1.817,-0.057,-9.304,-0.007,0.011,-0.02
227874,1.82,-0.055,-9.311,-0.006,0.011,-0.02
227977,1.817,-0.072,-9.297,-0.007,0.011,-0.02
228080,1.836,-0.065,-9.304,-0.006,0.011,-0.02
228183,1.832,-0.065,-9.29,-0.007,0.011,-0.019
228286,1.824,-0.062,-9.306,-0.007,0.011,-0.021
228389,1.822,-0.067,-9.316,-0.007,0.011,-0.02
228492,1.817,-0.06,-9.299,-0.006,0.011,-0.02
228595,1.827,-0.065,-9.313,-0.007,0.011,-0.02
228698,1.817,-0.065,-9.313,-0.007,0.011,-0.02
228801,1.82,-0.057,-9.309,-0.007,0.011,-0.02
228904,1.827,-0.067,-9.313,-0.007,0.011,-0.021
229007,1.822,-0.067,-9.311,-0.006,0.011,-0.02
229110,1.82,-0.062,-9.299,-0.007,0.011,-0.02
229213,1.824,-0.067,-9.313,-0.007,0.011,-0.02
229316,1.808,-0.06,-9.292,-0.006,0.011,-0.02
229419,1.822,-0.062,-9.304,-0.007,0.011,-0.02
229522,1.834,-0.06,-9.323,-0.007,0.011,-0.02
229625,1.817,-0.072,-9.306,-0.007,0.011,-0.02
229728,1.824,-0.069,-9.311,-0.007,0.011,-0.02
229831,1.817,-0.062,-9.301,-0.007,0.01,-0.02
229934,1.815,-0.065,-9.301,-0.007,0.011,-0.02
230037,1.824,-0.065,-9.301,-0.007,0.01,-0.021
230140,1.827,-0.069,-9.309,-0.006,0.011,-0.02
230243,1.829,-0.065,-9.301,-0.007,0.011,-0.02
230346,1.822,-0.067,-9.301,-0.007,0.011,-0.021
230449,1.812,-0.072,-9.299,-0.007,0.011,-0.02
230552,1.822,-0.072,-9.313,-0.007,0.011,-0.02
230655,1.824,-0.06,-9.304,-0.006,0.011,-0.021
230758,1.815,-0.069,-9.318,-0.007,0.01,-0.021
230861,1.824,-0.067,-9.309,-0.006,0.011,-0.02
230964,1.829,-0.065,-9.309,-0.007,0.011,-0.02
231067,1.82,-0.069,-9.297,-0.007,0.011,-0.021
231170,1.817,-0.062,-9.311,-0.007,0.011,-0.021
231273,1.822,-0.062,-9.313,-0.007,0.011,-0.02
231376,1.822,-0.072,-9.309,-0.007,0.011,-0.021
231479,1.832,-0.062,-9.297,-0.007,0.011,-0.02
231582,1.829,-0.057,-9.321,-0.007,0.011,-0.02
231685,1.832,-0.06,-9.301,-0.007,0.011,-0.02
231788,1.827,-0.062,-9.301,-0.006,0.011,-0.02
231891,1.82,-0.065,-9.313,-0.007,0.011,-0.02
231994,1.829,-0.055,-9.301,-0.007,0.012,-0.02
232097,1.817,-0.057,-9.294,-0.006,0.011,-0.02
232200,1.82,-0.057,-9.292,-0.007,0.011,-0.02
232303,1.829,-0.065,-9.297,-0.007,0.011,-0.021
232406,1.81,-0.067,-9.299,-0.006,0.011,-0.02
232509,1.827,-0.067,-9.301,-0.007,0.011,-0.02
232612,1.836,-0.069,-9.313,-0.007,0.011,-0.02
232715,1.82,-0.069,-9.311,-0.007,0.011,-0.02
232818,1.822,-0.043,-9.306,-0.007,0.011,-0.021
232921,1.822,-0.055,-9.299,-0.007,0.011,-0.02
233024,1.827,-0.074,-9.318,-0.007,0.011,-0.02
233127,1.815,-0.055,-9.318,-0.007,0.01,-0.02
233230,1.822,-0.065,-9.316,-0.006,0.011,-0.02
233333,1.817,-0.055,-9.29,-0.007,0.011,-0.02
233436,1.824,-0.065,-9.311,-0.007,0.011,-0.02
233539,1.827,-0.053,-9.316,-0.006,0.011,-0.02
233642,1.822,-0.055,-9.287,-0.007,0.012,-0.02
233745,1.822,-0.065,-9.316,-0.007,0.011,-0.02
233848,1.829,-0.067,-9.299,-0.007,0.011,-0.02
233951,1.829,-0.05,-9.301,-0.007,0.011,-0.02
234054,1.82,-0.069,-9.301,-0.006,0.012,-0.02
234157,1.827,-0.062,-9.306,-0.007,0.011,-0.02
234260,1.824,-0.06,-9.313,-0.007,0.011,-0.02
234363,1.824,-0.067,-9.306,-0.007,0.011,-0.021
234466,1.815,-0.062,-9.313,-0.007,0.011,-0.021
234569,1.824,-0.057,-9.311,-0.007,0.011,-0.021
234672,1.82,-0.057,-9.304,-0.007,0.011,-0.02
234775,1.824,-0.06,-9.304,-0.007,0.011,-0.02
234878,1.82,-0.062,-9.294,-0.007,0.011,-0.02
234981,1.824,-0.062,-9.304,-0.007,0.011,-0.02
235084,1.834,-0.065,-9.316,-0.007,0.011,-0.021
235187,1.822,-0.06,-9.316,-0.007,0.011,-0.02
235290,1.81,-0.065,-9.299,-0.007,0.011,-0.02
235393,1.827,-0.062,-9.316,-0.006,0.011,-0.02
235496,1.817,-0.072,-9.318,-0.007,0.011,-0.02
235599,1.815,-0.065,-9.301,-0.007,0.011,-0.021
235702,1.834,-0.06,-9.313,-0.007,0.011,-0.02
235805,1.832,-0.06,-9.299,-0.007,0.011,-0.02
235908,1.832,-0.062,-9.325,-0.007,0.011,-0.021
236011,1.822,-0.065,-9.313,-0.007,0.011,-0.02
236114,1.81,-0.057,-9.299,-0.007,0.011,-0.02
236217,1.824,-0.067,-9.301,-0.007,0.011,-0.02
236320,1.827,-0.065,-9.301,-0.007,0.011,-0.02
236423,1.827,-0.055,-9.306,-0.007,0.011,-0.021
236526,1.817,-0.06,-9.301,-0.007,0.011,-0.02
236629,1.815,-0.055,-9.297,-0.006,0.011,-0.02
236732,1.81,-0.06,-9.301,-0.007,0.011,-0.02
236835,1.822,-0.065,-9.306,-0.007,0.011,-0.02
236938,1.82,-0.062,-9.313,-0.007,0.011,-0.02
237041,1.824,-0.062,-9.304,-0.006,0.011,-0.02
237144,1.834,-0.069,-9.309,-0.006,0.011,-0.02
237247,1.82,-0.065,-9.304,-0.007,0.011,-0.02
237350,1.832,-0.055,-9.299,-0.007,0.011,-0.02
237453,1.829,-0.065,-9.301,-0.007,0.011,-0.02
237556,1.834,-0.062,-9.294,-0.007,0.011,-0.02
237659,1.824,-0.055,-9.323,-0.007,0.011,-0.02
237762,1.822,-0.067,-9.306,-0.007,0.011,-0.02
237865,1.824,-0.074,-9.297,-0.007,0.011,-0.021
237968,1.829,-0.062,-9.294,-0.006,0.011,-0.02
238071,1.82,-0.069,-9.313,-0.007,0.011,-0.02
238174,1.829,-0.06,-9.309,-0.007,0.011,-0.02
238277,1.817,-0.065,-9.29,-0.006,0.011,-0.02
238380,1.82,-0.06,-9.309,-0.007,0.011,-0.02
238483,1.832,-0.062,-9.297,-0.007,0.011,-0.021
238586,1.82,-0.055,-9.294,-0.006,0.011,-0.02
238689,1.829,-0.06,-9.294,-0.007,0.011,-0.02
238792,1.827,-0.067,-9.321,-0.007,0.011,-0.02
238895,1.827,-0.067,-9.304,-0.007,0.011,-0.021
238998,1.81,-0.06,-9.304,-0.007,0.011,-0.02
239101,1.822,-0.057,-9.309,-0.007,0.011,-0.02
239204,1.817,-0.072,-9.297,-0.007,0.011,-0.02
239307,1.832,-0.069,-9.304,-0.007,0.011,-0.02
239410,1.832,-0.055,-9.318,-0.006,0.011,-0.02
239513,1.829,-0.053,-9.306,-0.007,0.011,-0.02
239616,1.824,-0.065,-9.306,-0.007,0.011,-0.021
239719,1.822,-0.067,-9.304,-0.007,0.011,-0.02
239822,1.812,-0.055,-9.309,-0.007,0.011,-0.02
239925,1.817,-0.065,-9.313,-0.007,0.011,-0.02
240028,1.812,-0.069,-9.309,-0.007,0.011,-0.02
240131,1.824,-0.065,-9.306,-0.007,0.011,-0.02
240234,1.824,-0.062,-9.318,-0.007,0.01,-0.02
240337,1.815,-0.062,-9.309,-0.007,0.011,-0.02
240440,1.829,-0.055,-9.299,-0.007,0.011,-0.02
240543,1.824,-0.055,-9.306,-0.006,0.011,-0.021
240646,1.815,-0.069,-9.304,-0.007,0.011,-0.021
240749,1.834,-0.055,-9.301,-0.007,0.011,-0.02
240852,1.817,-0.062,-9.306,-0.007,0.011,-0.02
240955,1.827,-0.067,-9.301,-0.007,0.011,-0.021
241058,1.824,-0.072,-9.29,-0.007,0.011,-0.019
241161,1.824,-0.074,-9.294,-0.007,0.011,-0.02
241264,1.827,-0.057,-9.309,-0.007,0.011,-0.02
241367,1.829,-0.055,-9.306,-0.007,0.011,-0.02
241470,1.817,-0.065,-9.304,-0.007,0.011,-0.021
241573,1.82,-0.072,-9.316,-0.007,0.011,-0.021
241676,1.824,-0.06,-9.294,-0.007,0.011,-0.02
241779,1.82,-0.06,-9.316,-0.007,0.011,-0.021
241882,1.817,-0.06,-9.313,-0.007,0.011,-0.02
241985,1.808,-0.062,-9.311,-0.006,0.011,-0.02
242088,1.817,-0.05,-9.304,-0.007,0.011,-0.02
242191,1.822,-0.055,-9.306,-0.007,0.011,-0.02
242294,1.824,-0.062,-9.292,-0.006,0.011,-0.02
242397,1.827,-0.067,-9.304,-0.007,0.011,-0.02
242500,1.832,-0.062,-9.313,-0.006,0.011,-0.02
242603,1.827,-0.06,-9.316,-0.007,0.011,-0.02
242706,1.829,-0.062,-9.304,-0.007,0.011,-0.02
242809,1.82,-0.065,-9.304,-0.007,0.011,-0.02
242912,1.829,-0.065,-9.316,-0.007,0.011,-0.021
243015,1.824,-0.072,-9.294,-0.007,0.011,-0.02
243118,1.812,-0.072,-9.294,-0.007,0.011,-0.02
243221,1.836,-0.06,-9.313,-0.007,0.011,-0.02
243324,1.822,-0.067,-9.321,-0.007,0.011,-0.019
243427,1.822,-0.062,-9.294,-0.007,0.011,-0.02
243530,1.832,-0.06,-9.318,-0.006,0.011,-0.02
243633,1.82,-0.067,-9.313,-0.006,0.011,-0.02
243736,1.817,-0.065,-9.304,-0.007,0.011,-0.021
243839,1.815,-0.057,-9.309,-0.007,0.011,-0.02
243942,1.82,-0.067,-9.299,-0.006,0.011,-0.02
244045,1.832,-0.062,-9.299,-0.006,0.011,-0.021
244148,1.827,-0.069,-9.299,-0.007,0.011,-0.02
244251,1.815,-0.065,-9.311,-0.007,0.011,-0.02
244354,1.832,-0.053,-9.309,-0.007,0.011,-0.02
244457,1.815,-0.065,-9.311,-0.007,0.011,-0.02
244560,1.82,-0.065,-9.309,-0.007,0.011,-0.02
244663,1.822,-0.062,-9.318,-0.007,0.011,-0.02
244766,1.824,-0.067,-9.309,-0.007,0.01,-0.02
244869,1.822,-0.065,-9.306,-0.007,0.011,-0.021
244972,1.829,-0.057,-9.309,-0.007,0.011,-0.02
245075,1.822,-0.067,-9.301,-0.006,0.011,-0.02
245178,1.822,-0.069,-9.301,-0.007,0.012,-0.02
245281,1.815,-0.055,-9.301,-0.007,0.011,-0.02
245384,1.829,-0.062,-9.313,-0.007,0.011,-0.02
245487,1.827,-0.065,-9.316,-0.007,0.011,-0.02
245590,1.815,-0.069,-9.301,-0.006,0.011,-0.021
245693,1.822,-0.062,-9.311,-0.007,0.011,-0.02
245796,1.817,-0.062,-9.306,-0.006,0.011,-0.02
245899,1.82,-0.067,-9.313,-0.007,0.011,-0.02
246002,1.836,-0.067,-9.316,-0.007,0.011,-0.021
246105,1.836,-0.06,-9.318,-0.006,0.011,-0.02
246208,1.822,-0.062,-9.294,-0.007,0.011,-0.02
246311,1.829,-0.057,-9.313,-0.007,0.011,-0.021
246414,1.824,-0.05,-9.301,-0.007,0.011,-0.021
246517,1.815,-0.069,-9.306,-0.007,0.011,-0.021
246620,1.824,-0.065,-9.33,-0.007,0.011,-0.02
246723,1.808,-0.062,-9.306,-0.007,0.011,-0.02
246826,1.822,-0.065,-9.29,-0.007,0.011,-0.021
246929,1.812,-0.062,-9.306,-0.007,0.011,-0.02
247032,1.812,-0.065,-9.306,-0.007,0.011,-0.02
247135,1.829,-0.06,-9.301,-0.007,0.011,-0.021
247238,1.829,-0.062,-9.304,-0.007,0.011,-0.02
247341,1.822,-0.062,-9.299,-0.007,0.011,-0.02
247444,1.836,-0.069,-9.304,-0.006,0.011,-0.02
247547,1.82,-0.074,-9.299,-0.007,0.011,-0.021
247650,1.822,-0.065,-9.301,-0.007,0.011,-0.02
247753,1.836,-0.065,-9.287,-0.007,0.011,-0.02
247856,1.817,-0.079,-9.299,-0.007,0.011,-0.02
247959,1.824,-0.062,-9.313,-0.007,0.011,-0.02
248062,1.832,-0.067,-9.316,-0.007,0.011,-0.021
248165,1.817,-0.053,-9.306,-0.007,0.011,-0.02
248268,1.822,-0.062,-9.304,-0.007,0.011,-0.02
248371,1.822,-0.067,-9.301,-0.007,0.011,-0.02
248474,1.812,-0.062,-9.309,-0.007,0.011,-0.021
248577,1.82,-0.06,-9.304,-0.007,0.011,-0.021
248680,1.824,-0.06,-9.299,-0.006,0.011,-0.02
248783,1.822,-0.067,-9.292,-0.007,0.011,-0.02
248886,1.827,-0.062,-9.297,-0.007,0.011,-0.02
248989,1.81,-0.074,-9.311,-0.007,0.011,-0.02
249092,1.829,-0.065,-9.33,-0.007,0.011,-0.02
249195,1.822,-0.069,-9.316,-0.006,0.01,-0.02
249298,1.82,-0.065,-9.313,-0.007,0.011,-0.02
249401,1.824,-0.062,-9.316,-0.007,0.011,-0.02
249504,1.822,-0.077,-9.306,-0.007,0.011,-0.02
249607,1.824,-0.057,-9.306,-0.007,0.011,-0.02
249710,1.824,-0.057,-9.313,-0.006,0.011,-0.02
249813,1.808,-0.079,-9.292,-0.007,0.011,-0.02
249916,1.829,-0.057,-9.301,-0.007,0.011,-0.02
250019,1.827,-0.057,-9.301,-0.007,0.011,-0.019
250122,1.812,-0.062,-9.318,-0.007,0.011,-0.02
250225,1.82,-0.06,-9.304,-0.007,0.011,-0.021
250328,1.829,-0.057,-9.321,-0.007,0.011,-0.02
250431,1.815,-0.057,-9.321,-0.007,0.011,-0.02
250534,1.822,-0.06,-9.311,-0.006,0.011,-0.02
250637,1.822,-0.065,-9.306,-0.006,0.011,-0.02
250740,1.817,-0.067,-9.301,-0.007,0.011,-0.02
250843,1.834,-0.057,-9.328,-0.007,0.01,-0.02
250946,1.805,-0.065,-9.306,-0.007,0.011,-0.02
251049,1.822,-0.053,-9.299,-0.007,0.011,-0.02
251152,1.827,-0.065,-9.304,-0.007,0.011,-0.02
251255,1.82,-0.065,-9.304,-0.007,0.011,-0.02
251358,1.839,-0.055,-9.316,-0.007,0.011,-0.02
251461,1.817,-0.067,-9.309,-0.007,0.011,-0.02
251564,1.82,-0.055,-9.309,-0.007,0.011,-0.02
251667,1.822,-0.053,-9.313,-0.007,0.011,-0.02
251770,1.82,-0.074,-9.313,-0.007,0.011,-0.02
251873,1.815,-0.057,-9.313,-0.007,0.011,-0.02
251976,1.824,-0.06,-9.321,-0.007,0.011,-0.02
252079,1.815,-0.055,-9.294,-0.007,0.011,-0.02
252182,1.824,-0.065,-9.301,-0.007,0.011,-0.02
252285,1.829,-0.055,-9.311,-0.007,0.011,-0.02
252388,1.812,-0.069,-9.304,-0.007,0.012,-0.021
252491,1.827,-0.053,-9.299,-0.006,0.011,-0.02
252594,1.815,-0.065,-9.306,-0.007,0.011,-0.02
252697,1.82,-0.055,-9.313,-0.007,0.011,-0.021
252800,1.822,-0.062,-9.294,-0.007,0.011,-0.02
252903,1.817,-0.06,-9.301,-0.006,0.011,-0.02
253006,1.824,-0.065,-9.304,-0.007,0.011,-0.021
253109,1.817,-0.062,-9.311,-0.007,0.011,-0.02
253212,1.82,-0.069,-9.297,-0.007,0.011,-0.021
253315,1.827,-0.062,-9.311,-0.007,0.011,-0.021
253418,1.824,-0.067,-9.299,-0.007,0.011,-0.02
253521,1.812,-0.067,-9.306,-0.007,0.011,-0.021
253624,1.832,-0.065,-9.313,-0.007,0.011,-0.02
253727,1.817,-0.072,-9.299,-0.007,0.011,-0.02
253830,1.824,-0.072,-9.306,-0.007,0.011,-0.021
253933,1.827,-0.069,-9.287,-0.007,0.011,-0.02
254036,1.827,-0.067,-9.316,-0.007,0.011,-0.02
254139,1.824,-0.062,-9.304,-0.007,0.011,-0.02
254242,1.822,-0.055,-9.313,-0.006,0.011,-0.02
254345,1.817,-0.069,-9.309,-0.007,0.011,-0.02
254448,1.822,-0.074,-9.304,-0.007,0.011,-0.02
254551,1.827,-0.062,-9.297,-0.006,0.011,-0.02
254654,1.82,-0.069,-9.299,-0.007,0.011,-0.02
254757,1.834,-0.067,-9.297,-0.007,0.011,-0.02
254860,1.815,-0.06,-9.311,-0.007,0.011,-0.02
254963,1.817,-0.057,-9.304,-0.007,0.011,-0.021
255066,1.827,-0.067,-9.309,-0.006,0.011,-0.02
255169,1.812,-0.069,-9.292,-0.007,0.011,-0.02
255272,1.827,-0.065,-9.294,-0.007,0.011,-0.02
255375,1.824,-0.067,-9.311,-0.007,0.011,-0.02
255478,1.822,-0.067,-9.304,-0.007,0.011,-0.02
255581,1.829,-0.05,-9.316,-0.007,0.011,-0.021
255684,1.82,-0.074,-9.299,-0.007,0.011,-0.02
255787,1.822,-0.067,-9.309,-0.006,0.011,-0.02
255890,1.836,-0.06,-9.328,-0.007,0.011,-0.02
255993,1.82,-0.06,-9.304,-0.007,0.011,-0.02
256096,1.827,-0.062,-9.309,-0.007,0.011,-0.02
256199,1.82,-0.065,-9.299,-0.007,0.011,-0.02
256302,1.829,-0.055,-9.301,-0.007,0.011,-0.02
256405,1.817,-0.062,-9.313,-0.007,0.011,-0.02
256508,1.824,-0.062,-9.301,-0.007,0.011,-0.02
256611,1.82,-0.062,-9.311,-0.006,0.011,-0.02
256714,1.82,-0.074,-9.304,-0.006,0.011,-0.02
256817,1.812,-0.067,-9.316,-0.007,0.011,-0.021
256920,1.822,-0.069,-9.304,-0.007,0.011,-0.021
257023,1.817,-0.057,-9.316,-0.007,0.011,-0.02
257126,1.812,-0.062,-9.299,-0.006,0.011,-0.02
257229,1.832,-0.062,-9.299,-0.007,0.011,-0.02
257332,1.817,-0.057,-9.299,-0.007,0.011,-0.02
257435,1.822,-0.069,-9.309,-0.007,0.011,-0.02
257538,1.829,-0.06,-9.311,-0.006,0.011,-0.021
257641,1.822,-0.067,-9.306,-0.006,0.011,-0.021
257744,1.829,-0.057,-9.301,-0.007,0.011,-0.02
257847,1.82,-0.062,-9.301,-0.006,0.011,-0.02
257950,1.82,-0.06,-9.299,-0.007,0.011,-0.02
258053,1.824,-0.065,-9.287,-0.007,0.011,-0.02
258156,1.822,-0.065,-9.306,-0.007,0.011,-0.02
258259,1.817,-0.077,-9.306,-0.007,0.011,-0.021
258362,1.832,-0.057,-9.297,-0.006,0.011,-0.021
258465,1.812,-0.062,-9.306,-0.007,0.011,-0.021
258568,1.822,-0.065,-9.301,-0.006,0.011,-0.021
258671,1.822,-0.072,-9.304,-0.007,0.011,-0.02
258774,1.824,-0.057,-9.311,-0.007,0.011,-0.02
258877,1.82,-0.067,-9.313,-0.007,0.011,-0.021
258980,1.827,-0.065,-9.316,-0.007,0.011,-0.02
259083,1.82,-0.067,-9.306,-0.007,0.012,-0.02
259186,1.824,-0.065,-9.304,-0.007,0.011,-0.021
259289,1.82,-0.057,-9.306,-0.006,0.011,-0.02
259392,1.82,-0.06,-9.292,-0.007,0.011,-0.021
259495,1.812,-0.057,-9.316,-0.007,0.011,-0.02
259598,1.815,-0.065,-9.311,-0.006,0.011,-0.02
259701,1.822,-0.055,-9.311,-0.007,0.011,-0.021
259804,1.824,-0.069,-9.309,-0.007,0.011,-0.021
259907,1.815,-0.067,-9.304,-0.007,0.011,-0.02
260010,1.824,-0.057,-9.304,-0.007,0.011,-0.021
260113,1.812,-0.072,-9.316,-0.007,0.011,-0.02
260216,1.822,-0.065,-9.301,-0.007,0.011,-0.021
260319,1.824,-0.065,-9.309,-0.007,0.011,-0.021
260422,1.824,-0.065,-9.313,-0.006,0.01,-0.021
260525,1.829,-0.065,-9.325,-0.007,0.011,-0.021
260628,1.82,-0.069,-9.306,-0.007,0.012,-0.02
260731,1.822,-0.067,-9.299,-0.007,0.011,-0.02
260834,1.812,-0.067,-9.313,-0.007,0.011,-0.02
260937,1.829,-0.067,-9.304,-0.007,0.011,-0.02
261040,1.822,-0.072,-9.309,-0.006,0.011,-0.021
261143,1.822,-0.062,-9.309,-0.007,0.011,-0.02
261246,1.822,-0.065,-9.304,-0.007,0.011,-0.021
261349,1.817,-0.074,-9.306,-0.007,0.011,-0.02
261452,1.822,-0.067,-9.325,-0.007,0.011,-0.021
261555,1.822,-0.065,-9.306,-0.007,0.012,-0.02
261658,1.82,-0.065,-9.297,-0.007,0.012,-0.02
261761,1.822,-0.065,-9.301,-0.007,0.011,-0.02
261864,1.822,-0.072,-9.294,-0.007,0.011,-0.02
261967,1.829,-0.057,-9.301,-0.007,0.011,-0.02
262070,1.839,-0.069,-9.325,-0.007,0.011,-0.02
262173,1.815,-0.065,-9.297,-0.007,0.011,-0.02
262276,1.829,-0.067,-9.316,-0.007,0.011,-0.021
262379,1.827,-0.065,-9.299,-0.007,0.011,-0.02
262482,1.82,-0.065,-9.306,-0.007,0.011,-0.02
262585,1.824,-0.065,-9.309,-0.007,0.011,-0.02
262688,1.82,-0.069,-9.316,-0.006,0.011,-0.021
262791,1.829,-0.062,-9.301,-0.006,0.011,-0.02
262894,1.824,-0.055,-9.323,-0.007,0.011,-0.02
262997,1.815,-0.067,-9.304,-0.007,0.011,-0.02
263100,1.82,-0.057,-9.313,-0.006,0.011,-0.02
263203,1.822,-0.053,-9.299,-0.007,0.011,-0.02
263306,1.805,-0.062,-9.311,-0.007,0.011,-0.02
263409,1.822,-0.069,-9.297,-0.007,0.011,-0.02
263512,1.815,-0.057,-9.297,-0.007,0.011,-0.02
263615,1.82,-0.069,-9.306,-0.007,0.011,-0.02
263718,1.836,-0.062,-9.304,-0.007,0.011,-0.021
263821,1.82,-0.065,-9.299,-0.006,0.011,-0.02
263924,1.824,-0.055,-9.294,-0.007,0.011,-0.021
264027,1.822,-0.062,-9.304,-0.006,0.011,-0.02
264130,1.817,-0.065,-9.299,-0.007,0.011,-0.02
264233,1.815,-0.057,-9.311,-0.007,0.011,-0.02
264336,1.829,-0.062,-9.301,-0.007,0.011,-0.02
264439,1.817,-0.072,-9.316,-0.007,0.011,-0.02
264542,1.829,-0.069,-9.309,-0.007,0.011,-0.02
264645,1.827,-0.057,-9.304,-0.006,0.011,-0.02
264748,1.812,-0.069,-9.299,-0.007,0.011,-0.02
264851,1.839,-0.062,-9.309,-0.007,0.011,-0.02
264954,1.82,-0.06,-9.297,-0.007,0.011,-0.02
265057,1.827,-0.062,-9.313,-0.007,0.011,-0.021
265160,1.812,-0.06,-9.323,-0.007,0.011,-0.02
265263,1.817,-0.077,-9.306,-0.006,0.011,-0.02
265366,1.822,-0.06,-9.309,-0.007,0.011,-0.021
265469,1.827,-0.062,-9.306,-0.006,0.011,-0.02
265572,1.815,-0.065,-9.309,-0.007,0.011,-0.02
265675,1.822,-0.06,-9.306,-0.007,0.011,-0.02
265778,1.82,-0.069,-9.297,-0.007,0.011,-0.02
265881,1.81,-0.057,-9.313,-0.007,0.012,-0.02
265984,1.822,-0.062,-9.306,-0.007,0.011,-0.021
266087,1.822,-0.069,-9.309,-0.007,0.011,-0.02
266190,1.832,-0.057,-9.299,-0.007,0.011,-0.02
266293,1.812,-0.06,-9.299,-0.006,0.011,-0.02
266396,1.815,-0.057,-9.297,-0.007,0.011,-0.02
266499,1.829,-0.06,-9.311,-0.007,0.011,-0.02
266602,1.829,-0.067,-9.301,-0.006,0.011,-0.02
266705,1.824,-0.067,-9.316,-0.007,0.011,-0.02
266808,1.822,-0.065,-9.292,-0.006,0.011,-0.02
266911,1.815,-0.06,-9.311,-0.007,0.011,-0.02
267014,1.82,-0.067,-9.311,-0.007,0.011,-0.021
267117,1.829,-0.06,-9.313,-0.006,0.011,-0.02
267220,1.815,-0.065,-9.301,-0.006,0.011,-0.02
267323,1.832,-0.057,-9.299,-0.007,0.011,-0.021
267426,1.824,-0.065,-9.292,-0.007,0.011,-0.02
267529,1.824,-0.055,-9.313,-0.007,0.011,-0.02
267632,1.812,-0.072,-9.301,-0.007,0.011,-0.02
267735,1.817,-0.072,-9.299,-0.007,0.011,-0.02
267838,1.824,-0.069,-9.304,-0.007,0.011,-0.02
267941,1.827,-0.06,-9.304,-0.007,0.011,-0.02
268044,1.812,-0.065,-9.313,-0.007,0.011,-0.02
268147,1.827,-0.067,-9.304,-0.007,0.011,-0.02
268250,1.824,-0.057,-9.311,-0.007,0.011,-0.02
268353,1.817,-0.06,-9.318,-0.007,0.011,-0.02
268456,1.82,-0.062,-9.318,-0.007,0.011,-0.02
268559,1.82,-0.072,-9.306,-0.007,0.011,-0.021
268662,1.815,-0.074,-9.306,-0.007,0.011,-0.02
268765,1.82,-0.062,-9.301,-0.007,0.011,-0.02
268868,1.805,-0.065,-9.304,-0.006,0.011,-0.02
268971,1.817,-0.065,-9.299,-0.007,0.011,-0.02
269074,1.827,-0.057,-9.299,-0.007,0.011,-0.02
269177,1.82,-0.055,-9.309,-0.007,0.011,-0.021
269280,1.829,-0.069,-9.297,-0.007,0.011,-0.02
269383,1.82,-0.06,-9.313,-0.007,0.011,-0.02
269486,1.817,-0.065,-9.294,-0.007,0.011,-0.021
269589,1.827,-0.053,-9.301,-0.006,0.011,-0.02
269692,1.822,-0.06,-9.323,-0.007,0.011,-0.02
269795,1.815,-0.06,-9.306,-0.007,0.011,-0.02
269898,1.832,-0.057,-9.311,-0.007,0.011,-0.02
270001,1.824,-0.06,-9.316,-0.006,0.011,-0.02
270104,1.827,-0.065,-9.299,-0.007,0.011,-0.02
270207,1.817,-0.065,-9.306,-0.007,0.011,-0.02
270310,1.829,-0.069,-9.306,-0.007,0.011,-0.021
270413,1.829,-0.057,-9.311,-0.007,0.011,-0.02
270516,1.827,-0.067,-9.299,-0.007,0.011,-0.02
270619,1.815,-0.055,-9.299,-0.007,0.011,-0.02
270722,1.824,-0.06,-9.311,-0.006,0.011,-0.02
270825,1.824,-0.06,-9.311,-0.006,0.011,-0.02
270928,1.822,-0.062,-9.309,-0.007,0.011,-0.02
271031,1.824,-0.06,-9.301,-0.007,0.011,-0.02
271134,1.812,-0.067,-9.309,-0.007,0.011,-0.02
271237,1.829,-0.06,-9.297,-0.007,0.011,-0.021
271340,1.832,-0.06,-9.299,-0.006,0.011,-0.02
271443,1.815,-0.065,-9.306,-0.006,0.011,-0.021
271546,1.841,-0.05,-9.316,-0.007,0.011,-0.02
271649,1.81,-0.067,-9.299,-0.007,0.011,-0.02
271752,1.82,-0.077,-9.316,-0.007,0.012,-0.02
271855,1.824,-0.067,-9.29,-0.007,0.011,-0.021
271958,1.817,-0.069,-9.292,-0.006,0.011,-0.02
