time (ms),acceleration x,acceleration y,acceleration z,gyro x,gyro y,gyro z
656,0.611,0.01,-9.428,-0.008,0.007,-0.013
759,0.615,0.007,-9.421,-0.008,0.007,-0.013
862,0.632,0.01,-9.428,-0.008,0.007,-0.013
965,0.625,0.0,-9.416,-0.008,0.007,-0.013
1068,0.627,0.019,-9.433,-0.008,0.007,-0.013
1171,0.625,0.022,-9.431,-0.009,0.007,-0.013
1274,0.611,0.005,-9.416,-0.008,0.007,-0.013
1377,0.63,0.014,-9.421,-0.008,0.007,-0.013
1480,0.618,0.007,-9.424,-0.009,0.007,-0.013
1583,0.622,0.007,-9.414,-0.008,0.007,-0.013
1686,0.618,0.014,-9.433,-0.008,0.007,-0.013
1789,0.611,0.007,-9.412,-0.007,0.007,-0.013
1892,0.625,0.014,-9.421,-0.008,0.007,-0.013
1995,0.622,0.012,-9.431,-0.008,0.007,-0.013
2098,0.613,0.017,-9.44,-0.008,0.007,-0.013
2201,0.613,0.01,-9.419,-0.008,0.007,-0.013
2304,0.622,0.005,-9.421,-0.009,0.007,-0.013
2407,0.622,0.007,-9.409,-0.008,0.007,-0.013
2510,0.63,0.01,-9.431,-0.008,0.007,-0.013
2613,0.611,0.017,-9.419,-0.009,0.007,-0.013
2716,0.62,0.014,-9.409,-0.009,0.007,-0.013
2819,0.625,0.012,-9.416,-0.008,0.007,-0.013
2922,0.62,0.007,-9.426,-0.008,0.007,-0.013
3025,0.618,0.01,-9.428,-0.008,0.007,-0.013
3128,0.608,0.017,-9.419,-0.008,0.007,-0.013
3231,0.611,0.01,-9.426,-0.008,0.007,-0.013
3334,0.637,0.0,-9.44,-0.008,0.007,-0.013
3437,0.615,0.014,-9.431,-0.008,0.007,-0.013
3540,0.615,0.007,-9.431,-0.008,0.007,-0.013
3643,0.627,0.012,-9.433,-0.008,0.007,-0.013
3746,0.611,0.012,-9.431,-0.008,0.007,-0.013
3849,0.632,0.024,-9.431,-0.008,0.007,-0.013
3952,0.613,0.01,-9.424,-0.009,0.007,-0.013
4055,0.625,0.007,-9.421,-0.008,0.007,-0.014
4158,0.634,0.012,-9.438,-0.008,0.007,-0.013
4261,0.632,0.002,-9.428,-0.008,0.007,-0.013
4364,0.613,0.005,-9.445,-0.008,0.007,-0.013
4467,0.622,0.007,-9.433,-0.008,0.007,-0.013
4570,0.615,0.01,-9.428,-0.008,0.007,-0.013
4673,0.63,0.007,-9.424,-0.008,0.007,-0.013
4776,0.618,0.012,-9.428,-0.008,0.007,-0.013
4879,0.615,0.014,-9.428,-0.008,0.007,-0.013
4982,0.622,0.017,-9.428,-0.009,0.007,-0.013
5085,0.613,0.017,-9.433,-0.008,0.007,-0.013
5188,0.622,0.019,-9.433,-0.009,0.007,-0.013
5291,0.625,0.007,-9.426,-0.009,0.007,-0.013
5394,0.62,0.014,-9.419,-0.008,0.007,-0.013
5497,0.625,0.017,-9.419,-0.008,0.007,-0.013
5600,0.611,0.017,-9.433,-0.008,0.007,-0.013
5703,0.611,0.01,-9.419,-0.008,0.007,-0.013
5806,0.622,0.005,-9.419,-0.008,0.007,-0.013
5909,0.62,0.014,-9.448,-0.008,0.007,-0.013
6012,0.622,0.017,-9.433,-0.008,0.007,-0.013
6115,0.615,0.01,-9.428,-0.008,0.007,-0.013
6218,0.613,0.01,-9.433,-0.008,0.007,-0.013
6321,0.62,0.019,-9.419,-0.009,0.007,-0.013
6424,0.627,0.005,-9.428,-0.008,0.007,-0.013
6527,0.615,-0.002,-9.443,-0.008,0.007,-0.013
6630,0.618,0.005,-9.436,-0.008,0.007,-0.013
6733,0.63,0.014,-9.421,-0.008,0.007,-0.013
6836,0.62,0.01,-9.433,-0.008,0.007,-0.013
6939,0.62,0.019,-9.426,-0.008,0.007,-0.013
7042,0.622,0.019,-9.44,-0.008,0.007,-0.013
7145,0.625,0.005,-9.424,-0.009,0.007,-0.013
7248,0.632,0.024,-9.438,-0.008,0.007,-0.013
7351,0.62,0.014,-9.421,-0.008,0.007,-0.013
7454,0.618,0.002,-9.426,-0.009,0.007,-0.013
7557,0.62,0.01,-9.452,-0.009,0.007,-0.013
7660,0.63,0.012,-9.416,-0.008,0.007,-0.013
7763,0.63,0.007,-9.428,-0.008,0.007,-0.013
7866,0.627,0.005,-9.424,-0.008,0.007,-0.013
7969,0.622,0.012,-9.4,-0.009,0.007,-0.013
8072,0.613,0.0,-9.44,-0.008,0.007,-0.013
8175,0.625,0.005,-9.433,-0.008,0.007,-0.013
8278,0.622,0.01,-9.426,-0.009,0.007,-0.013
8381,0.627,0.007,-9.431,-0.009,0.008,-0.013
8484,0.615,0.01,-9.431,-0.008,0.007,-0.013
8587,0.618,0.012,-9.436,-0.008,0.007,-0.013
8690,0.627,0.014,-9.433,-0.008,0.007,-0.013
8793,0.618,0.022,-9.426,-0.008,0.007,-0.013
8896,0.622,0.01,-9.428,-0.008,0.007,-0.013
8999,0.627,0.012,-9.436,-0.008,0.007,-0.013
9102,0.625,0.0,-9.426,-0.008,0.007,-0.013
9205,0.618,0.017,-9.438,-0.009,0.007,-0.013
9308,0.622,0.01,-9.426,-0.008,0.007,-0.012
9411,0.613,0.005,-9.436,-0.009,0.007,-0.013
9514,0.627,0.026,-9.44,-0.007,0.007,-0.013
9617,0.618,-0.002,-9.433,-0.008,0.006,-0.013
9720,0.62,0.012,-9.438,-0.008,0.007,-0.013
9823,0.618,0.014,-9.431,-0.008,0.007,-0.013
9926,0.599,0.014,-9.44,-0.008,0.007,-0.013
10029,0.613,0.007,-9.445,-0.008,0.007,-0.013
10132,0.625,0.019,-9.426,-0.008,0.007,-0.013
10235,0.62,0.012,-9.419,-0.009,0.007,-0.013
10338,0.627,0.014,-9.443,-0.008,0.007,-0.013
10441,0.625,0.0,-9.419,-0.008,0.007,-0.013
10544,0.622,0.01,-9.436,-0.008,0.007,-0.013
10647,0.625,0.017,-9.433,-0.008,0.007,-0.013
10750,0.615,0.005,-9.416,-0.008,0.007,-0.013
10853,0.618,0.005,-9.421,-0.009,0.007,-0.013
10956,0.618,0.007,-9.436,-0.009,0.007,-0.013
11059,0.613,0.012,-9.438,-0.009,0.007,-0.013
11162,0.615,0.017,-9.455,-0.008,0.007,-0.013
11265,0.615,0.01,-9.431,-0.008,0.007,-0.013
11368,0.611,0.019,-9.448,-0.008,0.007,-0.013
11471,0.625,0.017,-9.443,-0.009,0.007,-0.013
11574,0.622,0.007,-9.419,-0.008,0.007,-0.013
11677,0.62,0.017,-9.436,-0.009,0.007,-0.013
11780,0.622,0.007,-9.433,-0.009,0.007,-0.014
11883,0.615,0.01,-9.428,-0.009,0.007,-0.013
11986,0.625,0.014,-9.433,-0.009,0.007,-0.014
12089,0.622,0.019,-9.431,-0.008,0.007,-0.013
12192,0.613,0.019,-9.433,-0.008,0.007,-0.013
12295,0.63,0.014,-9.443,-0.008,0.007,-0.013
12398,0.622,0.01,-9.421,-0.008,0.007,-0.013
12501,0.618,0.014,-9.419,-0.008,0.007,-0.013
12604,0.62,0.002,-9.433,-0.009,0.007,-0.013
12707,0.615,0.007,-9.44,-0.008,0.007,-0.013
12810,0.622,0.012,-9.44,-0.008,0.007,-0.013
12913,0.634,0.01,-9.426,-0.008,0.007,-0.013
13016,0.613,0.014,-9.428,-0.009,0.007,-0.013
13119,0.622,0.01,-9.433,-0.009,0.007,-0.013
13222,0.622,0.005,-9.44,-0.008,0.007,-0.013
13325,0.608,0.012,-9.438,-0.008,0.007,-0.013
13428,0.627,0.01,-9.431,-0.009,0.007,-0.013
13531,0.618,0.019,-9.421,-0.008,0.007,-0.013
13634,0.608,0.019,-9.44,-0.008,0.007,-0.013
13737,0.62,0.019,-9.424,-0.008,0.007,-0.013
13840,0.618,0.014,-9.428,-0.009,0.007,-0.013
13943,0.618,0.012,-9.44,-0.009,0.007,-0.013
14046,0.618,0.01,-9.436,-0.009,0.007,-0.013
14149,0.627,0.014,-9.44,-0.008,0.007,-0.013
14252,0.603,0.014,-9.424,-0.008,0.007,-0.013
14355,0.622,0.012,-9.436,-0.009,0.007,-0.013
14458,0.615,0.012,-9.424,-0.008,0.007,-0.013
14561,0.622,0.01,-9.428,-0.009,0.007,-0.013
14664,0.62,0.01,-9.426,-0.008,0.007,-0.013
14767,0.637,0.019,-9.433,-0.008,0.007,-0.012
14870,0.625,0.012,-9.436,-0.008,0.007,-0.013
14973,0.63,0.017,-9.421,-0.008,0.007,-0.013
15076,0.611,0.017,-9.443,-0.008,0.007,-0.013
15179,0.618,0.012,-9.433,-0.008,0.007,-0.013
15282,0.613,0.017,-9.424,-0.008,0.007,-0.013
15385,0.615,0.014,-9.431,-0.009,0.007,-0.013
15488,0.62,0.014,-9.448,-0.009,0.007,-0.013
15591,0.62,0.012,-9.436,-0.008,0.007,-0.013
15694,0.618,0.017,-9.421,-0.008,0.007,-0.013
15797,0.627,0.012,-9.44,-0.009,0.007,-0.013
15900,0.63,0.014,-9.433,-0.009,0.007,-0.013
16003,0.615,0.007,-9.445,-0.009,0.007,-0.013
16106,0.615,0.01,-9.438,-0.008,0.007,-0.013
16209,0.613,0.014,-9.433,-0.009,0.007,-0.013
16312,0.625,0.012,-9.44,-0.008,0.007,-0.013
16415,0.625,0.022,-9.45,-0.008,0.007,-0.013
16518,0.62,0.012,-9.44,-0.008,0.007,-0.013
16621,0.622,0.005,-9.433,-0.008,0.007,-0.013
16724,0.618,0.005,-9.428,-0.008,0.007,-0.013
16827,0.634,0.017,-9.424,-0.008,0.007,-0.013
16930,0.625,0.007,-9.431,-0.008,0.007,-0.013
17033,0.618,0.019,-9.424,-0.008,0.007,-0.013
17136,0.625,0.017,-9.424,-0.008,0.007,-0.013
17239,0.622,0.017,-9.431,-0.008,0.007,-0.013
17342,0.622,0.002,-9.426,-0.008,0.007,-0.013
17445,0.618,0.014,-9.443,-0.008,0.007,-0.013
17548,0.615,0.007,-9.421,-0.008,0.007,-0.013
17651,0.62,0.012,-9.431,-0.008,0.007,-0.013
17754,0.622,0.014,-9.445,-0.009,0.007,-0.013
17857,0.622,0.007,-9.428,-0.008,0.007,-0.013
17960,0.62,0.017,-9.433,-0.008,0.007,-0.013
18063,0.618,-0.002,-9.438,-0.009,0.007,-0.013
18166,0.622,0.007,-9.436,-0.008,0.007,-0.013
18269,0.627,0.014,-9.426,-0.008,0.007,-0.013
18372,0.62,0.019,-9.45,-0.008,0.007,-0.013
18475,0.615,0.01,-9.44,-0.008,0.007,-0.013
18578,0.625,0.01,-9.45,-0.009,0.007,-0.013
18681,0.62,0.01,-9.443,-0.008,0.007,-0.013
18784,0.622,-0.005,-9.438,-0.009,0.006,-0.013
18887,0.618,0.014,-9.445,-0.008,0.007,-0.013
18990,0.618,0.007,-9.426,-0.008,0.007,-0.013
19093,0.611,0.002,-9.436,-0.009,0.007,-0.013
19196,0.611,0.005,-9.448,-0.008,0.007,-0.013
19299,0.608,0.005,-9.428,-0.008,0.007,-0.013
19402,0.625,0.01,-9.426,-0.009,0.008,-0.013
19505,0.63,0.01,-9.433,-0.008,0.007,-0.013
19608,0.625,0.01,-9.428,-0.008,0.007,-0.013
19711,0.63,0.01,-9.45,-0.009,0.007,-0.013
19814,0.611,0.007,-9.428,-0.008,0.007,-0.013
19917,0.615,0.022,-9.428,-0.009,0.007,-0.013
20020,0.613,0.007,-9.438,-0.009,0.007,-0.013
20123,0.611,0.014,-9.433,-0.009,0.007,-0.013
20226,0.625,0.026,-9.438,-0.008,0.007,-0.013
20329,0.618,0.007,-9.44,-0.009,0.007,-0.013
20432,0.63,0.012,-9.424,-0.009,0.007,-0.013
20535,0.63,0.019,-9.426,-0.008,0.007,-0.013
20638,0.62,0.005,-9.433,-0.008,0.007,-0.013
20741,0.63,0.014,-9.436,-0.009,0.007,-0.013
20844,0.637,0.01,-9.433,-0.009,0.007,-0.013
20947,0.615,0.007,-9.431,-0.008,0.007,-0.013
21050,0.625,0.014,-9.448,-0.009,0.007,-0.013
21153,0.622,0.007,-9.431,-0.008,0.006,-0.013
21256,0.622,0.01,-9.436,-0.009,0.007,-0.013
21359,0.627,0.017,-9.433,-0.009,0.007,-0.013
21462,0.625,0.01,-9.45,-0.008,0.007,-0.013
21565,0.627,0.01,-9.431,-0.009,0.007,-0.013
21668,0.62,0.002,-9.433,-0.008,0.007,-0.012
21771,0.608,0.014,-9.428,-0.008,0.007,-0.013
21874,0.622,0.007,-9.436,-0.008,0.007,-0.013
21977,0.615,0.01,-9.433,-0.008,0.007,-0.013
22080,0.611,0.01,-9.438,-0.009,0.007,-0.013
22183,0.62,0.01,-9.436,-0.008,0.007,-0.013
22286,0.62,0.007,-9.433,-0.008,0.007,-0.013
22389,0.613,0.005,-9.424,-0.009,0.007,-0.013
22492,0.622,0.014,-9.428,-0.008,0.007,-0.013
22595,0.62,0.012,-9.44,-0.008,0.007,-0.013
22698,0.634,0.005,-9.44,-0.009,0.007,-0.013
22801,0.622,0.002,-9.428,-0.008,0.007,-0.013
22904,0.615,0.012,-9.421,-0.008,0.007,-0.013
23007,0.618,0.01,-9.438,-0.009,0.007,-0.013
23110,0.618,0.007,-9.436,-0.008,0.007,-0.013
23213,0.618,0.012,-9.426,-0.009,0.007,-0.014
23316,0.627,0.017,-9.426,-0.008,0.007,-0.013
23419,0.62,0.007,-9.433,-0.008,0.007,-0.013
23522,0.613,0.012,-9.428,-0.008,0.007,-0.013
23625,0.625,0.005,-9.44,-0.008,0.007,-0.013
23728,0.618,0.01,-9.431,-0.008,0.007,-0.013
23831,0.622,0.017,-9.428,-0.008,0.007,-0.013
23934,0.618,0.014,-9.44,-0.008,0.007,-0.013
24037,0.622,0.007,-9.44,-0.008,0.007,-0.013
24140,0.622,0.017,-9.45,-0.008,0.007,-0.013
24243,0.627,0.014,-9.436,-0.008,0.007,-0.013
24346,0.622,0.01,-9.433,-0.008,0.007,-0.013
24449,0.62,0.01,-9.436,-0.009,0.007,-0.013
24552,0.625,0.0,-9.44,-0.008,0.007,-0.013
24655,0.62,0.007,-9.424,-0.008,0.007,-0.013
24758,0.615,0.022,-9.428,-0.008,0.007,-0.013
24861,0.606,0.014,-9.412,-0.009,0.007,-0.013
24964,0.625,0.019,-9.445,-0.009,0.007,-0.013
25067,0.62,0.017,-9.455,-0.008,0.007,-0.013
25170,0.606,0.007,-9.438,-0.009,0.007,-0.013
25273,0.62,0.01,-9.433,-0.008,0.007,-0.013
25376,0.622,-0.002,-9.416,-0.008,0.007,-0.013
25479,0.627,0.005,-9.424,-0.009,0.007,-0.013
25582,0.613,0.014,-9.448,-0.009,0.007,-0.013
25685,0.611,0.017,-9.433,-0.009,0.007,-0.013
25788,0.62,-0.007,-9.436,-0.008,0.007,-0.013
25891,0.62,0.024,-9.438,-0.009,0.007,-0.013
25994,0.63,0.007,-9.426,-0.009,0.007,-0.013
26097,0.622,0.002,-9.424,-0.008,0.007,-0.013
26200,0.62,0.017,-9.419,-0.009,0.007,-0.013
26303,0.625,0.017,-9.443,-0.009,0.007,-0.013
26406,0.642,0.01,-9.421,-0.009,0.007,-0.013
26509,0.618,0.012,-9.416,-0.008,0.007,-0.013
26612,0.62,0.005,-9.438,-0.009,0.007,-0.013
26715,0.62,0.012,-9.428,-0.009,0.007,-0.013
26818,0.62,0.01,-9.445,-0.008,0.007,-0.013
26921,0.622,0.022,-9.45,-0.008,0.007,-0.014
27024,0.622,0.019,-9.45,-0.009,0.007,-0.013
27127,0.611,0.014,-9.433,-0.009,0.007,-0.013
27230,0.625,0.024,-9.45,-0.008,0.007,-0.013
27333,0.62,0.019,-9.436,-0.008,0.007,-0.013
27436,0.632,0.014,-9.443,-0.009,0.007,-0.013
27539,0.622,0.014,-9.433,-0.008,0.007,-0.013
27642,0.611,0.017,-9.438,-0.009,0.007,-0.013
27745,0.622,0.007,-9.433,-0.008,0.007,-0.013
27848,0.622,0.012,-9.436,-0.009,0.007,-0.013
27951,0.615,0.012,-9.414,-0.008,0.007,-0.013
28054,0.627,0.014,-9.44,-0.009,0.007,-0.013
28157,0.62,0.014,-9.433,-0.008,0.008,-0.013
28260,0.613,0.014,-9.44,-0.008,0.007,-0.013
28363,0.63,0.012,-9.438,-0.009,0.007,-0.013
28466,0.62,0.012,-9.438,-0.008,0.007,-0.013
28569,0.625,0.022,-9.436,-0.008,0.007,-0.013
28672,0.627,0.007,-9.44,-0.008,0.007,-0.013
28775,0.608,0.01,-9.443,-0.009,0.007,-0.013
28878,0.627,0.012,-9.443,-0.008,0.007,-0.013
28981,0.622,0.019,-9.44,-0.008,0.007,-0.013
29084,0.62,0.005,-9.452,-0.008,0.007,-0.014
29187,0.622,0.005,-9.445,-0.008,0.007,-0.013
29290,0.615,0.01,-9.448,-0.008,0.007,-0.013
29393,0.618,0.005,-9.426,-0.009,0.007,-0.013
29496,0.63,0.024,-9.448,-0.008,0.007,-0.013
29599,0.618,0.007,-9.428,-0.009,0.007,-0.013
29702,0.627,0.01,-9.44,-0.009,0.007,-0.013
29805,0.632,0.007,-9.443,-0.008,0.007,-0.013
29908,0.622,0.014,-9.438,-0.009,0.007,-0.013
30011,0.625,0.017,-9.44,-0.008,0.007,-0.013
30114,0.622,0.017,-9.426,-0.008,0.007,-0.013
30217,0.615,0.019,-9.452,-0.009,0.007,-0.013
30320,0.618,0.012,-9.436,-0.008,0.007,-0.013
30423,0.622,0.024,-9.44,-0.009,0.007,-0.013
30526,0.63,0.019,-9.445,-0.008,0.007,-0.013
30629,0.627,0.017,-9.438,-0.008,0.007,-0.013
30732,0.611,0.014,-9.436,-0.008,0.007,-0.013
30835,0.62,0.012,-9.426,-0.009,0.007,-0.013
30938,0.622,0.012,-9.443,-0.009,0.007,-0.013
31041,0.761,0.002,-9.436,0.016,0.367,-0.005
31144,0.881,-0.002,-9.421,-0.007,0.024,-0.013
31247,0.862,-0.019,-9.409,-0.009,0.007,-0.013
31350,0.879,-0.005,-9.395,-0.009,0.007,-0.014
31453,0.881,-0.014,-9.407,-0.008,0.007,-0.013
31556,0.874,-0.012,-9.419,-0.009,0.007,-0.013
31659,0.871,-0.005,-9.407,-0.009,0.007,-0.013
31762,0.886,-0.002,-9.407,-0.008,0.007,-0.013
31865,0.886,-0.005,-9.409,-0.008,0.007,-0.013
31968,0.888,-0.007,-9.421,-0.008,0.007,-0.013
32071,0.874,-0.002,-9.404,-0.009,0.007,-0.013
32174,0.871,-0.01,-9.402,-0.008,0.007,-0.013
32277,0.883,-0.01,-9.409,-0.008,0.007,-0.013
32380,0.874,0.0,-9.404,-0.009,0.007,-0.013
32483,0.876,-0.007,-9.419,-0.009,0.007,-0.013
32586,0.879,-0.002,-9.431,-0.008,0.007,-0.013
32689,0.869,-0.007,-9.421,-0.009,0.007,-0.013
32792,0.876,-0.005,-9.404,-0.009,0.007,-0.013
32895,0.869,-0.012,-9.397,-0.008,0.007,-0.013
32998,0.871,0.0,-9.409,-0.009,0.007,-0.013
33101,0.879,-0.007,-9.392,-0.009,0.007,-0.013
33204,0.864,-0.017,-9.424,-0.009,0.007,-0.013
33307,0.869,-0.002,-9.409,-0.009,0.007,-0.013
33410,0.883,0.0,-9.416,-0.008,0.007,-0.013
33513,0.883,0.0,-9.404,-0.008,0.007,-0.013
33616,0.869,-0.005,-9.419,-0.008,0.007,-0.013
33719,0.879,-0.002,-9.419,-0.009,0.007,-0.013
33822,0.874,-0.002,-9.414,-0.008,0.007,-0.013
33925,0.871,-0.002,-9.426,-0.009,0.007,-0.013
34028,0.879,0.0,-9.421,-0.009,0.007,-0.013
34131,0.862,0.002,-9.409,-0.009,0.007,-0.013
34234,0.874,0.002,-9.419,-0.008,0.007,-0.013
34337,0.874,-0.005,-9.419,-0.009,0.007,-0.013
34440,0.879,-0.01,-9.421,-0.009,0.007,-0.013
34543,0.874,-0.017,-9.407,-0.008,0.007,-0.012
34646,0.874,-0.007,-9.397,-0.009,0.007,-0.013
34749,0.864,-0.002,-9.412,-0.008,0.007,-0.013
34852,0.881,-0.01,-9.414,-0.008,0.007,-0.013
34955,0.871,-0.012,-9.404,-0.008,0.007,-0.013
35058,0.879,-0.007,-9.428,-0.009,0.007,-0.013
35161,0.881,-0.002,-9.414,-0.009,0.007,-0.013
35264,0.879,-0.005,-9.409,-0.008,0.007,-0.013
35367,0.881,-0.007,-9.416,-0.008,0.007,-0.013
35470,0.879,-0.002,-9.404,-0.009,0.007,-0.013
35573,0.871,-0.012,-9.409,-0.009,0.007,-0.013
35676,0.879,-0.005,-9.414,-0.009,0.007,-0.013
35779,0.871,-0.01,-9.409,-0.008,0.007,-0.013
35882,0.876,-0.012,-9.412,-0.008,0.007,-0.013
35985,0.869,-0.007,-9.431,-0.008,0.007,-0.013
36088,0.862,-0.007,-9.414,-0.008,0.007,-0.013
36191,0.891,-0.002,-9.426,-0.009,0.007,-0.013
36294,0.879,-0.005,-9.414,-0.008,0.007,-0.013
36397,0.871,-0.007,-9.419,-0.008,0.007,-0.013
36500,0.879,0.0,-9.414,-0.009,0.007,-0.013
36603,0.867,-0.014,-9.4,-0.008,0.007,-0.013
36706,0.874,-0.017,-9.404,-0.008,0.007,-0.013
36809,0.879,-0.007,-9.426,-0.009,0.007,-0.013
36912,0.886,-0.002,-9.424,-0.009,0.007,-0.013
37015,0.883,-0.017,-9.407,-0.008,0.007,-0.013
37118,0.869,-0.002,-9.421,-0.008,0.007,-0.013
37221,0.874,-0.005,-9.421,-0.009,0.007,-0.013
37324,0.879,-0.01,-9.407,-0.009,0.007,-0.013
37427,0.874,-0.014,-9.407,-0.008,0.007,-0.013
37530,0.879,-0.012,-9.407,-0.008,0.007,-0.013
37633,0.883,-0.01,-9.409,-0.008,0.007,-0.013
37736,0.874,-0.005,-9.419,-0.009,0.007,-0.013
37839,0.879,-0.005,-9.416,-0.009,0.007,-0.013
37942,0.876,-0.007,-9.428,-0.009,0.007,-0.013
38045,0.874,-0.007,-9.412,-0.008,0.007,-0.013
38148,0.867,-0.005,-9.416,-0.009,0.007,-0.013
38251,0.879,0.0,-9.421,-0.008,0.007,-0.013
38354,0.871,-0.007,-9.421,-0.009,0.007,-0.013
38457,0.888,-0.012,-9.414,-0.008,0.007,-0.013
38560,0.888,-0.002,-9.414,-0.009,0.007,-0.013
38663,0.876,-0.01,-9.414,-0.009,0.007,-0.013
38766,0.881,-0.01,-9.419,-0.008,0.007,-0.013
38869,0.869,-0.007,-9.416,-0.009,0.007,-0.013
38972,0.886,-0.007,-9.412,-0.009,0.007,-0.013
39075,0.879,-0.007,-9.426,-0.008,0.007,-0.013
39178,0.864,-0.007,-9.409,-0.008,0.007,-0.013
39281,0.876,-0.007,-9.416,-0.008,0.007,-0.013
39384,0.874,0.002,-9.419,-0.008,0.007,-0.013
39487,0.869,-0.019,-9.409,-0.008,0.007,-0.013
39590,0.881,0.002,-9.421,-0.008,0.007,-0.013
39693,0.864,0.0,-9.416,-0.008,0.007,-0.013
39796,0.876,-0.017,-9.428,-0.009,0.007,-0.013
39899,0.876,-0.002,-9.404,-0.008,0.007,-0.013
40002,0.874,-0.012,-9.416,-0.009,0.007,-0.013
40105,0.869,-0.007,-9.421,-0.008,0.007,-0.013
40208,0.879,-0.007,-9.416,-0.009,0.007,-0.013
40311,0.869,-0.007,-9.419,-0.009,0.007,-0.013
40414,0.886,-0.005,-9.419,-0.008,0.007,-0.013
40517,0.876,-0.002,-9.421,-0.008,0.007,-0.013
40620,0.881,-0.01,-9.421,-0.009,0.007,-0.013
40723,0.883,-0.014,-9.419,-0.008,0.007,-0.013
40826,0.879,-0.007,-9.409,-0.009,0.007,-0.013
40929,0.874,-0.005,-9.419,-0.009,0.007,-0.013
41032,0.883,-0.012,-9.416,-0.008,0.007,-0.013
41135,0.876,0.0,-9.416,-0.009,0.007,-0.013
41238,0.871,-0.012,-9.414,-0.009,0.007,-0.013
41341,0.874,-0.017,-9.419,-0.008,0.007,-0.013
41444,0.876,-0.012,-9.39,-0.008,0.007,-0.013
41547,0.886,-0.007,-9.421,-0.009,0.007,-0.013
41650,0.888,-0.002,-9.414,-0.008,0.007,-0.012
41753,0.874,-0.005,-9.414,-0.008,0.007,-0.013
41856,0.879,-0.014,-9.407,-0.008,0.007,-0.013
41959,0.874,-0.014,-9.412,-0.009,0.007,-0.013
42062,0.883,-0.012,-9.409,-0.009,0.007,-0.013
42165,0.871,-0.014,-9.416,-0.008,0.007,-0.013
42268,0.869,-0.019,-9.407,-0.008,0.007,-0.013
42371,0.881,-0.012,-9.414,-0.009,0.007,-0.013
42474,0.876,-0.01,-9.414,-0.008,0.007,-0.013
42577,0.881,-0.012,-9.419,-0.009,0.007,-0.014
42680,0.879,0.005,-9.419,-0.009,0.007,-0.013
42783,0.874,-0.002,-9.428,-0.008,0.007,-0.014
42886,0.871,-0.01,-9.409,-0.009,0.007,-0.013
42989,0.876,-0.01,-9.404,-0.008,0.007,-0.013
43092,0.881,-0.007,-9.395,-0.008,0.007,-0.013
43195,0.874,-0.002,-9.407,-0.008,0.007,-0.013
43298,0.869,-0.01,-9.402,-0.008,0.007,-0.013
43401,0.886,-0.005,-9.402,-0.008,0.007,-0.013
43504,0.871,-0.007,-9.416,-0.008,0.007,-0.013
43607,0.879,-0.012,-9.421,-0.008,0.007,-0.013
43710,0.874,-0.005,-9.419,-0.009,0.007,-0.013
43813,0.876,-0.012,-9.414,-0.008,0.007,-0.013
43916,0.869,-0.01,-9.404,-0.009,0.007,-0.013
44019,0.871,-0.007,-9.426,-0.008,0.007,-0.013
44122,0.874,-0.012,-9.421,-0.009,0.007,-0.013
44225,0.871,-0.002,-9.404,-0.009,0.007,-0.013
44328,0.881,-0.01,-9.404,-0.009,0.007,-0.014
44431,0.869,-0.01,-9.421,-0.009,0.007,-0.013
44534,0.879,-0.007,-9.412,-0.009,0.008,-0.013
44637,0.874,-0.01,-9.409,-0.009,0.007,-0.013
44740,0.874,-0.012,-9.421,-0.009,0.007,-0.013
44843,0.867,0.0,-9.414,-0.008,0.007,-0.013
44946,0.883,-0.014,-9.419,-0.009,0.007,-0.013
45049,0.874,-0.002,-9.412,-0.008,0.008,-0.013
45152,0.876,-0.014,-9.419,-0.008,0.007,-0.013
45255,0.871,-0.01,-9.409,-0.008,0.007,-0.013
45358,0.867,0.002,-9.412,-0.008,0.007,-0.013
45461,0.879,-0.005,-9.409,-0.009,0.007,-0.013
45564,0.879,0.002,-9.419,-0.008,0.007,-0.013
45667,0.881,-0.019,-9.409,-0.008,0.007,-0.013
45770,0.879,-0.005,-9.414,-0.008,0.007,-0.013
45873,0.879,-0.014,-9.402,-0.008,0.007,-0.013
45976,0.888,-0.005,-9.414,-0.008,0.007,-0.013
46079,0.874,-0.002,-9.412,-0.008,0.007,-0.013
46182,0.867,-0.01,-9.402,-0.008,0.007,-0.013
46285,0.874,0.002,-9.409,-0.009,0.007,-0.013
46388,0.876,-0.012,-9.412,-0.009,0.008,-0.013
46491,0.879,-0.012,-9.412,-0.009,0.007,-0.013
46594,0.879,-0.007,-9.419,-0.009,0.007,-0.013
46697,0.871,-0.012,-9.419,-0.008,0.007,-0.013
46800,0.871,0.0,-9.414,-0.009,0.007,-0.013
46903,0.883,-0.005,-9.412,-0.009,0.007,-0.013
47006,0.874,-0.01,-9.4,-0.008,0.006,-0.013
47109,0.883,-0.017,-9.421,-0.009,0.007,-0.014
47212,0.879,-0.012,-9.412,-0.008,0.007,-0.013
47315,0.867,-0.007,-9.4,-0.008,0.007,-0.013
47418,0.879,-0.01,-9.407,-0.009,0.007,-0.013
47521,0.874,-0.012,-9.419,-0.009,0.007,-0.013
47624,0.874,-0.012,-9.416,-0.009,0.007,-0.013
47727,0.883,-0.01,-9.416,-0.008,0.007,-0.013
47830,0.871,-0.01,-9.409,-0.008,0.007,-0.013
47933,0.876,-0.005,-9.404,-0.009,0.007,-0.014
48036,0.891,-0.01,-9.412,-0.009,0.007,-0.013
48139,0.876,-0.007,-9.424,-0.009,0.007,-0.013
48242,0.879,0.0,-9.412,-0.009,0.007,-0.013
48345,0.879,-0.002,-9.409,-0.009,0.007,-0.013
48448,0.867,-0.01,-9.436,-0.008,0.007,-0.013
48551,0.879,-0.012,-9.421,-0.008,0.007,-0.013
48654,0.883,-0.002,-9.407,-0.009,0.007,-0.013
48757,0.881,-0.005,-9.416,-0.008,0.007,-0.013
48860,0.876,-0.012,-9.402,-0.009,0.007,-0.013
48963,0.874,-0.019,-9.407,-0.008,0.007,-0.013
49066,0.881,-0.012,-9.412,-0.009,0.007,-0.013
49169,0.874,-0.017,-9.404,-0.009,0.007,-0.013
49272,0.874,-0.005,-9.414,-0.009,0.007,-0.014
49375,0.879,-0.01,-9.412,-0.008,0.007,-0.013
49478,0.867,-0.019,-9.404,-0.009,0.007,-0.013
49581,0.879,-0.017,-9.414,-0.009,0.007,-0.013
49684,0.874,-0.007,-9.426,-0.008,0.007,-0.013
49787,0.869,-0.017,-9.414,-0.009,0.007,-0.013
49890,0.879,-0.007,-9.412,-0.008,0.007,-0.013
49993,0.886,-0.012,-9.412,-0.008,0.007,-0.013
50096,0.869,-0.012,-9.424,-0.008,0.007,-0.013
50199,0.886,-0.007,-9.421,-0.009,0.007,-0.013
50302,0.888,-0.005,-9.416,-0.009,0.007,-0.013
50405,0.874,-0.012,-9.412,-0.009,0.007,-0.014
50508,0.879,-0.002,-9.421,-0.008,0.007,-0.013
50611,0.869,-0.005,-9.412,-0.009,0.006,-0.013
50714,0.874,-0.01,-9.414,-0.009,0.007,-0.013
50817,0.881,0.0,-9.426,-0.009,0.007,-0.013
50920,0.871,0.0,-9.419,-0.009,0.007,-0.013
51023,0.883,-0.01,-9.421,-0.008,0.007,-0.014
51126,0.881,-0.002,-9.426,-0.008,0.007,-0.013
51229,0.869,-0.01,-9.426,-0.008,0.007,-0.013
51332,0.881,-0.005,-9.424,-0.008,0.007,-0.013
51435,0.879,-0.002,-9.419,-0.008,0.007,-0.013
51538,0.881,-0.005,-9.426,-0.009,0.007,-0.013
51641,0.869,-0.01,-9.424,-0.009,0.007,-0.013
51744,0.869,-0.005,-9.409,-0.008,0.007,-0.013
51847,0.876,-0.019,-9.419,-0.008,0.007,-0.013
51950,0.879,-0.007,-9.419,-0.008,0.007,-0.013
52053,0.874,-0.005,-9.424,-0.009,0.007,-0.013
52156,0.881,-0.01,-9.412,-0.009,0.007,-0.013
52259,0.881,-0.002,-9.407,-0.008,0.006,-0.013
52362,0.869,-0.017,-9.407,-0.008,0.007,-0.014
52465,0.881,-0.007,-9.419,-0.009,0.007,-0.013
52568,0.876,-0.012,-9.416,-0.008,0.007,-0.013
52671,0.862,-0.007,-9.428,-0.008,0.007,-0.013
52774,0.883,-0.017,-9.419,-0.008,0.007,-0.013
52877,0.874,-0.01,-9.412,-0.008,0.007,-0.013
52980,0.874,-0.005,-9.421,-0.009,0.007,-0.014
53083,0.879,-0.01,-9.424,-0.008,0.007,-0.013
53186,0.867,-0.007,-9.421,-0.008,0.007,-0.013
53289,0.883,-0.002,-9.402,-0.008,0.007,-0.013
53392,0.881,-0.007,-9.421,-0.008,0.007,-0.012
53495,0.871,-0.012,-9.407,-0.009,0.007,-0.013
53598,0.876,0.005,-9.419,-0.009,0.007,-0.013
53701,0.881,-0.007,-9.414,-0.009,0.007,-0.013
53804,0.879,-0.005,-9.421,-0.008,0.007,-0.014
53907,0.886,-0.005,-9.414,-0.009,0.007,-0.013
54010,0.879,-0.012,-9.412,-0.008,0.007,-0.013
54113,0.876,0.0,-9.409,-0.009,0.007,-0.014
54216,0.879,-0.007,-9.426,-0.009,0.007,-0.013
54319,0.874,-0.007,-9.424,-0.009,0.007,-0.013
54422,0.886,-0.005,-9.409,-0.009,0.007,-0.013
54525,0.871,0.0,-9.407,-0.008,0.007,-0.013
54628,0.874,-0.007,-9.409,-0.009,0.007,-0.013
54731,0.874,-0.005,-9.416,-0.008,0.007,-0.013
54834,0.862,-0.005,-9.416,-0.008,0.007,-0.013
54937,0.881,-0.005,-9.407,-0.009,0.007,-0.013
55040,0.874,-0.012,-9.416,-0.009,0.007,-0.013
55143,0.876,0.0,-9.426,-0.009,0.007,-0.013
55246,0.881,0.0,-9.424,-0.008,0.007,-0.013
55349,0.883,-0.014,-9.409,-0.008,0.007,-0.013
55452,0.881,-0.017,-9.419,-0.009,0.007,-0.013
55555,0.886,0.0,-9.397,-0.008,0.007,-0.013
55658,0.871,-0.012,-9.409,-0.009,0.006,-0.013
55761,0.879,-0.012,-9.409,-0.008,0.007,-0.013
55864,0.871,-0.014,-9.419,-0.009,0.007,-0.013
55967,0.874,-0.01,-9.409,-0.009,0.007,-0.013
56070,0.879,-0.002,-9.409,-0.009,0.007,-0.013
56173,0.876,0.007,-9.419,-0.008,0.007,-0.013
56276,0.869,-0.01,-9.409,-0.008,0.007,-0.013
56379,0.864,-0.014,-9.407,-0.008,0.007,-0.014
56482,0.879,-0.002,-9.419,-0.009,0.007,-0.013
56585,0.876,0.0,-9.419,-0.008,0.007,-0.013
56688,0.888,-0.007,-9.424,-0.009,0.007,-0.013
56791,0.881,-0.007,-9.416,-0.008,0.007,-0.013
56894,0.869,-0.01,-9.416,-0.009,0.007,-0.013
56997,0.876,-0.002,-9.421,-0.008,0.007,-0.013
57100,0.874,-0.01,-9.407,-0.009,0.007,-0.013
57203,0.869,-0.005,-9.431,-0.008,0.007,-0.013
57306,0.881,-0.002,-9.426,-0.009,0.007,-0.013
57409,0.876,-0.012,-9.412,-0.008,0.007,-0.013
57512,0.876,-0.01,-9.426,-0.009,0.007,-0.013
57615,0.874,-0.012,-9.397,-0.008,0.007,-0.014
57718,0.862,-0.007,-9.428,-0.009,0.008,-0.013
57821,0.883,-0.01,-9.428,-0.008,0.007,-0.013
57924,0.869,-0.012,-9.419,-0.008,0.007,-0.013
58027,0.886,0.0,-9.438,-0.008,0.007,-0.013
58130,0.886,-0.012,-9.412,-0.009,0.007,-0.013
58233,0.883,-0.007,-9.421,-0.008,0.007,-0.013
58336,0.874,-0.01,-9.407,-0.009,0.007,-0.013
58439,0.879,-0.017,-9.419,-0.009,0.007,-0.013
58542,0.876,-0.007,-9.416,-0.009,0.007,-0.013
58645,0.879,-0.01,-9.397,-0.008,0.007,-0.013
58748,0.876,-0.002,-9.409,-0.008,0.007,-0.013
58851,0.876,-0.01,-9.4,-0.008,0.007,-0.013
58954,0.874,-0.007,-9.414,-0.008,0.007,-0.013
59057,0.871,-0.012,-9.409,-0.008,0.007,-0.013
59160,0.876,-0.01,-9.414,-0.009,0.007,-0.013
59263,0.881,-0.017,-9.416,-0.008,0.007,-0.013
59366,0.867,-0.012,-9.414,-0.008,0.007,-0.013
59469,0.881,-0.007,-9.409,-0.009,0.007,-0.014
59572,0.883,-0.005,-9.407,-0.008,0.007,-0.013
59675,0.881,-0.005,-9.421,-0.009,0.007,-0.013
59778,0.881,0.0,-9.428,-0.008,0.007,-0.013
59881,0.879,-0.007,-9.421,-0.009,0.007,-0.013
59984,0.879,-0.002,-9.402,-0.009,0.007,-0.013
60087,0.879,-0.007,-9.431,-0.009,0.007,-0.013
60190,0.876,-0.017,-9.424,-0.009,0.007,-0.013
60293,0.883,-0.005,-9.421,-0.009,0.007,-0.013
60396,0.874,-0.01,-9.404,-0.008,0.007,-0.013
60499,0.879,-0.007,-9.424,-0.009,0.007,-0.013
60602,0.886,-0.007,-9.426,-0.009,0.007,-0.013
60705,0.876,-0.012,-9.421,-0.008,0.007,-0.013
60808,0.869,-0.012,-9.407,-0.009,0.007,-0.013
60911,0.881,-0.002,-9.404,-0.009,0.006,-0.013
61014,0.879,-0.007,-9.407,-0.009,0.007,-0.013
61117,0.879,-0.012,-9.412,-0.008,0.007,-0.013
61220,0.886,-0.014,-9.421,-0.008,0.007,-0.013
61323,0.876,-0.012,-9.409,-0.009,0.007,-0.013
61426,0.867,-0.012,-9.412,-0.009,0.007,-0.014
61529,0.867,-0.005,-9.407,-0.008,0.007,-0.013
61632,0.864,-0.012,-9.426,-0.009,0.007,-0.013
61735,0.874,-0.007,-9.419,-0.009,0.007,-0.013
61838,0.876,-0.002,-9.424,-0.009,0.007,-0.013
61941,0.881,0.0,-9.414,-0.009,0.007,-0.013
62044,0.883,-0.002,-9.428,-0.009,0.007,-0.013
62147,0.871,-0.005,-9.424,-0.009,0.007,-0.013
62250,0.881,0.005,-9.421,-0.008,0.007,-0.014
62353,0.876,-0.01,-9.414,-0.008,0.007,-0.013
62456,0.871,-0.005,-9.407,-0.008,0.007,-0.013
62559,0.883,-0.012,-9.424,-0.009,0.007,-0.013
62662,0.864,-0.002,-9.431,-0.008,0.007,-0.013
62765,0.871,-0.002,-9.416,-0.009,0.007,-0.013
62868,0.874,-0.002,-9.412,-0.009,0.007,-0.013
62971,0.876,-0.01,-9.407,-0.008,0.007,-0.013
63074,0.874,-0.017,-9.412,-0.008,0.007,-0.013
63177,0.881,0.0,-9.419,-0.009,0.007,-0.013
63280,0.869,-0.005,-9.416,-0.008,0.007,-0.013
63383,0.876,-0.012,-9.416,-0.008,0.007,-0.013
63486,0.879,-0.002,-9.412,-0.009,0.007,-0.013
63589,0.871,-0.002,-9.409,-0.008,0.007,-0.013
63692,0.883,-0.007,-9.416,-0.009,0.007,-0.013
63795,0.874,-0.012,-9.407,-0.008,0.007,-0.013
63898,0.876,-0.007,-9.421,-0.008,0.007,-0.013
64001,0.881,-0.007,-9.407,-0.008,0.007,-0.013
64104,0.879,-0.005,-9.409,-0.008,0.007,-0.013
64207,0.876,-0.012,-9.419,-0.009,0.007,-0.013
64310,0.879,-0.012,-9.416,-0.009,0.007,-0.013
64413,0.874,-0.007,-9.404,-0.008,0.007,-0.013
64516,0.876,-0.005,-9.404,-0.009,0.007,-0.013
64619,0.881,-0.017,-9.424,-0.008,0.007,-0.013
64722,0.876,-0.014,-9.412,-0.009,0.007,-0.013
64825,0.879,-0.014,-9.416,-0.008,0.007,-0.013
64928,0.879,-0.007,-9.414,-0.009,0.007,-0.013
65031,0.883,-0.002,-9.412,-0.008,0.007,-0.013
65134,0.883,0.0,-9.412,-0.008,0.007,-0.013
65237,0.869,-0.007,-9.404,-0.009,0.007,-0.014
65340,0.874,-0.005,-9.421,-0.009,0.007,-0.013
65443,0.879,-0.007,-9.414,-0.009,0.007,-0.013
65546,0.874,-0.017,-9.407,-0.008,0.007,-0.014
65649,0.881,-0.017,-9.416,-0.009,0.007,-0.013
65752,0.876,-0.014,-9.407,-0.008,0.007,-0.013
65855,0.876,-0.002,-9.404,-0.009,0.007,-0.013
65958,0.886,-0.005,-9.424,-0.009,0.007,-0.013
66061,0.876,0.0,-9.409,-0.009,0.007,-0.013
66164,0.881,-0.01,-9.416,-0.008,0.007,-0.013
66267,0.886,-0.005,-9.426,-0.009,0.007,-0.013
66370,0.867,-0.005,-9.414,-0.008,0.007,-0.013
66473,0.888,-0.01,-9.414,-0.009,0.007,-0.013
66576,0.874,0.0,-9.419,-0.009,0.007,-0.013
66679,0.883,-0.012,-9.421,-0.008,0.007,-0.013
66782,0.883,0.0,-9.414,-0.009,0.007,-0.014
66885,0.871,0.0,-9.409,-0.009,0.006,-0.013
66988,0.867,-0.002,-9.421,-0.009,0.007,-0.013
67091,0.881,-0.005,-9.419,-0.009,0.007,-0.013
67194,0.874,-0.007,-9.409,-0.009,0.007,-0.013
67297,0.879,-0.01,-9.426,-0.009,0.007,-0.013
67400,0.879,-0.007,-9.407,-0.008,0.007,-0.013
67503,0.879,-0.01,-9.404,-0.009,0.007,-0.013
67606,0.881,-0.002,-9.416,-0.009,0.008,-0.013
67709,0.867,0.002,-9.407,-0.008,0.007,-0.013
67812,0.869,-0.014,-9.426,-0.009,0.007,-0.013
67915,0.869,0.002,-9.416,-0.008,0.007,-0.013
68018,0.881,-0.014,-9.407,-0.009,0.007,-0.013
68121,0.888,-0.012,-9.424,-0.008,0.007,-0.013
68224,0.883,-0.017,-9.421,-0.009,0.007,-0.013
68327,0.876,-0.007,-9.419,-0.008,0.007,-0.013
68430,0.876,-0.017,-9.388,-0.009,0.007,-0.014
68533,0.883,-0.002,-9.416,-0.008,0.007,-0.013
68636,0.881,-0.014,-9.414,-0.009,0.007,-0.013
68739,0.879,-0.012,-9.424,-0.009,0.007,-0.013
68842,0.867,-0.017,-9.395,-0.009,0.007,-0.013
68945,0.864,-0.012,-9.431,-0.009,0.007,-0.013
69048,0.888,-0.012,-9.419,-0.008,0.007,-0.014
69151,0.869,-0.01,-9.436,-0.008,0.007,-0.013
69254,0.881,-0.012,-9.409,-0.009,0.007,-0.013
69357,0.879,-0.012,-9.424,-0.009,0.007,-0.013
69460,0.876,-0.007,-9.414,-0.009,0.007,-0.013
69563,0.883,-0.002,-9.421,-0.009,0.007,-0.013
69666,0.879,-0.012,-9.414,-0.009,0.007,-0.013
69769,0.883,-0.002,-9.424,-0.009,0.007,-0.013
69872,0.879,-0.017,-9.421,-0.009,0.007,-0.013
69975,0.879,-0.002,-9.421,-0.008,0.007,-0.013
70078,0.883,-0.012,-9.416,-0.009,0.007,-0.013
70181,0.869,-0.002,-9.409,-0.009,0.007,-0.013
70284,0.876,-0.01,-9.397,-0.009,0.007,-0.013
70387,0.879,-0.005,-9.409,-0.008,0.007,-0.013
70490,0.881,-0.014,-9.407,-0.008,0.006,-0.013
70593,0.876,-0.012,-9.428,-0.008,0.007,-0.013
70696,0.881,-0.014,-9.428,-0.009,0.007,-0.013
70799,0.876,0.0,-9.416,-0.009,0.007,-0.013
70902,0.874,-0.017,-9.412,-0.009,0.007,-0.013
71005,0.876,-0.017,-9.421,-0.009,0.007,-0.013
71108,0.883,-0.007,-9.419,-0.009,0.007,-0.013
71211,0.874,-0.014,-9.409,-0.009,0.007,-0.013
71314,0.883,-0.002,-9.419,-0.009,0.007,-0.013
71417,0.867,-0.007,-9.416,-0.008,0.007,-0.013
71520,0.883,0.002,-9.414,-0.008,0.007,-0.013
71623,0.874,-0.005,-9.402,-0.009,0.007,-0.013
71726,0.876,-0.007,-9.426,-0.009,0.007,-0.013
71829,0.874,-0.01,-9.431,-0.009,0.007,-0.013
71932,0.874,-0.005,-9.421,-0.008,0.007,-0.013
72035,0.874,-0.012,-9.402,-0.009,0.007,-0.013
72138,0.883,0.0,-9.416,-0.008,0.007,-0.013
72241,0.874,-0.007,-9.409,-0.009,0.007,-0.013
72344,0.881,-0.014,-9.433,-0.009,0.007,-0.013
72447,0.874,-0.012,-9.416,-0.009,0.007,-0.013
72550,0.874,-0.002,-9.407,-0.009,0.006,-0.013
72653,0.881,-0.007,-9.426,-0.009,0.007,-0.013
72756,0.879,0.0,-9.419,-0.008,0.007,-0.013
72859,0.867,-0.01,-9.414,-0.008,0.007,-0.013
72962,0.869,-0.01,-9.416,-0.008,0.007,-0.013
73065,0.871,0.007,-9.421,-0.009,0.007,-0.013
73168,0.874,-0.002,-9.416,-0.008,0.007,-0.013
73271,0.881,-0.007,-9.412,-0.009,0.007,-0.013
73374,0.874,-0.007,-9.416,-0.008,0.007,-0.013
73477,0.891,-0.012,-9.402,-0.008,0.007,-0.013
73580,0.879,-0.012,-9.416,-0.008,0.007,-0.013
73683,0.869,-0.014,-9.426,-0.008,0.007,-0.013
73786,0.886,-0.012,-9.426,-0.008,0.007,-0.013
73889,0.869,-0.007,-9.412,-0.008,0.007,-0.013
73992,0.874,-0.005,-9.397,-0.009,0.007,-0.013
74095,0.883,0.0,-9.416,-0.009,0.007,-0.013
74198,0.876,-0.002,-9.414,-0.008,0.007,-0.013
74301,0.876,-0.002,-9.402,-0.009,0.007,-0.013
74404,0.871,-0.014,-9.424,-0.008,0.007,-0.013
74507,0.871,-0.012,-9.416,-0.009,0.007,-0.013
74610,0.881,0.0,-9.409,-0.008,0.008,-0.013
74713,0.871,0.005,-9.404,-0.008,0.007,-0.013
74816,0.881,-0.005,-9.397,-0.009,0.007,-0.013
74919,0.886,-0.002,-9.419,-0.008,0.007,-0.013
75022,0.871,-0.017,-9.433,-0.009,0.007,-0.013
75125,0.888,-0.005,-9.424,-0.009,0.007,-0.013
75228,0.886,-0.01,-9.409,-0.009,0.007,-0.013
75331,0.874,-0.01,-9.421,-0.009,0.007,-0.013
75434,0.874,-0.01,-9.426,-0.008,0.007,-0.013
75537,0.883,-0.014,-9.416,-0.008,0.007,-0.013
75640,0.881,-0.01,-9.419,-0.009,0.007,-0.013
75743,0.888,-0.01,-9.426,-0.008,0.007,-0.013
75846,0.871,-0.01,-9.416,-0.009,0.007,-0.013
75949,0.867,-0.014,-9.409,-0.008,0.007,-0.013
76052,0.879,-0.007,-9.419,-0.008,0.007,-0.013
76155,0.871,-0.005,-9.419,-0.009,0.007,-0.013
76258,0.879,-0.005,-9.433,-0.009,0.007,-0.013
76361,0.881,-0.007,-9.419,-0.009,0.007,-0.013
76464,0.871,-0.007,-9.412,-0.008,0.007,-0.013
76567,0.881,-0.005,-9.421,-0.009,0.007,-0.013
76670,0.869,-0.01,-9.419,-0.008,0.007,-0.013
76773,0.871,-0.01,-9.416,-0.009,0.007,-0.014
76876,0.876,-0.012,-9.428,-0.009,0.007,-0.013
76979,0.874,-0.007,-9.414,-0.008,0.007,-0.013
77082,0.881,-0.019,-9.416,-0.009,0.007,-0.013
77185,0.883,-0.002,-9.424,-0.009,0.007,-0.013
77288,0.879,0.0,-9.424,-0.009,0.008,-0.013
77391,0.883,-0.01,-9.414,-0.009,0.007,-0.013
77494,0.876,-0.007,-9.404,-0.008,0.007,-0.013
77597,0.871,-0.005,-9.414,-0.009,0.007,-0.013
77700,0.888,-0.01,-9.424,-0.009,0.007,-0.013
77803,0.871,0.0,-9.409,-0.009,0.007,-0.013
77906,0.871,0.002,-9.424,-0.008,0.007,-0.013
78009,0.879,-0.007,-9.426,-0.009,0.007,-0.013
78112,0.871,-0.002,-9.416,-0.008,0.007,-0.013
78215,0.886,0.005,-9.419,-0.008,0.007,-0.013
78318,0.895,0.0,-9.407,-0.008,0.007,-0.013
78421,0.876,-0.005,-9.426,-0.009,0.007,-0.013
78524,0.879,-0.005,-9.419,-0.009,0.007,-0.013
78627,0.879,-0.01,-9.416,-0.009,0.007,-0.013
78730,0.883,-0.007,-9.414,-0.009,0.007,-0.013
78833,0.881,-0.007,-9.402,-0.008,0.007,-0.013
78936,0.869,-0.007,-9.404,-0.008,0.007,-0.013
79039,0.886,0.002,-9.419,-0.009,0.007,-0.014
79142,0.886,-0.01,-9.416,-0.009,0.007,-0.013
79245,0.867,-0.01,-9.414,-0.008,0.007,-0.013
79348,0.879,-0.014,-9.404,-0.008,0.007,-0.014
79451,0.881,-0.017,-9.426,-0.009,0.007,-0.013
79554,0.869,-0.005,-9.421,-0.009,0.007,-0.013
79657,0.883,-0.012,-9.407,-0.008,0.007,-0.013
79760,0.874,-0.002,-9.412,-0.008,0.007,-0.013
79863,0.876,-0.005,-9.414,-0.009,0.007,-0.013
79966,0.886,-0.01,-9.421,-0.009,0.007,-0.013
80069,0.879,-0.005,-9.412,-0.009,0.007,-0.013
80172,0.879,-0.01,-9.409,-0.009,0.007,-0.013
80275,0.876,-0.01,-9.414,-0.009,0.007,-0.013
80378,0.862,-0.007,-9.409,-0.008,0.007,-0.013
80481,0.883,-0.002,-9.409,-0.008,0.007,-0.013
80584,0.879,-0.002,-9.424,-0.008,0.007,-0.013
80687,0.864,-0.007,-9.414,-0.008,0.007,-0.013
80790,0.881,0.0,-9.402,-0.009,0.007,-0.013
80893,0.879,0.002,-9.402,-0.009,0.007,-0.013
80996,0.871,-0.007,-9.412,-0.008,0.007,-0.013
81099,0.883,-0.01,-9.419,-0.008,0.007,-0.014
81202,0.879,-0.005,-9.409,-0.008,0.008,-0.013
81305,0.874,-0.01,-9.407,-0.008,0.007,-0.013
81408,0.874,-0.007,-9.407,-0.009,0.007,-0.013
81511,0.871,0.0,-9.412,-0.008,0.007,-0.013
81614,0.886,-0.019,-9.416,-0.008,0.007,-0.013
81717,0.876,-0.012,-9.421,-0.009,0.007,-0.013
81820,0.864,-0.01,-9.4,-0.009,0.007,-0.013
81923,0.886,-0.005,-9.419,-0.009,0.007,-0.013
82026,0.871,-0.014,-9.416,-0.009,0.007,-0.013
82129,0.876,-0.007,-9.402,-0.008,0.007,-0.013
82232,0.895,0.0,-9.428,-0.008,0.007,-0.013
82335,0.876,-0.017,-9.424,-0.008,0.007,-0.013
82438,0.881,-0.01,-9.409,-0.008,0.007,-0.013
82541,0.874,-0.002,-9.404,-0.008,0.007,-0.013
82644,0.871,-0.014,-9.414,-0.009,0.007,-0.013
82747,0.883,-0.005,-9.39,-0.008,0.007,-0.013
82850,0.874,-0.005,-9.414,-0.008,0.007,-0.013
82953,0.864,-0.01,-9.414,-0.009,0.007,-0.013
83056,0.891,-0.017,-9.421,-0.008,0.007,-0.013
83159,0.876,-0.007,-9.419,-0.009,0.007,-0.013
83262,0.869,-0.012,-9.428,-0.009,0.007,-0.013
83365,0.874,-0.01,-9.424,-0.008,0.007,-0.013
83468,0.879,-0.014,-9.419,-0.009,0.007,-0.013
83571,0.876,-0.007,-9.404,-0.008,0.007,-0.013
83674,0.876,-0.01,-9.414,-0.008,0.007,-0.013
83777,0.871,0.0,-9.409,-0.008,0.007,-0.013
83880,0.886,-0.01,-9.421,-0.008,0.007,-0.014
83983,0.879,-0.005,-9.414,-0.009,0.007,-0.013
84086,0.871,-0.002,-9.407,-0.009,0.007,-0.013
84189,0.893,-0.005,-9.404,-0.008,0.007,-0.013
84292,0.881,-0.002,-9.409,-0.008,0.007,-0.013
84395,0.876,-0.005,-9.419,-0.008,0.007,-0.014
84498,0.879,-0.007,-9.416,-0.008,0.007,-0.013
84601,0.867,-0.005,-9.433,-0.009,0.007,-0.013
84704,0.874,0.0,-9.421,-0.008,0.007,-0.013
84807,0.883,-0.012,-9.407,-0.008,0.007,-0.013
84910,0.879,-0.01,-9.421,-0.009,0.007,-0.013
85013,0.879,0.0,-9.407,-0.009,0.007,-0.014
85116,0.869,-0.012,-9.421,-0.009,0.007,-0.013
85219,0.881,-0.005,-9.414,-0.008,0.007,-0.013
85322,0.879,-0.014,-9.395,-0.008,0.007,-0.013
85425,0.864,-0.002,-9.409,-0.009,0.007,-0.013
85528,0.883,-0.01,-9.412,-0.009,0.007,-0.013
85631,0.881,-0.005,-9.44,-0.009,0.007,-0.014
85734,0.871,-0.005,-9.414,-0.008,0.007,-0.013
85837,0.874,-0.014,-9.421,-0.009,0.007,-0.013
85940,0.879,-0.014,-9.4,-0.009,0.007,-0.013
86043,0.879,-0.01,-9.424,-0.008,0.007,-0.014
86146,0.886,-0.005,-9.436,-0.009,0.007,-0.013
86249,0.886,-0.01,-9.414,-0.008,0.007,-0.014
86352,0.879,-0.01,-9.402,-0.009,0.007,-0.013
86455,0.876,-0.019,-9.412,-0.008,0.007,-0.013
86558,0.864,0.002,-9.421,-0.008,0.007,-0.013
86661,0.879,-0.012,-9.421,-0.008,0.007,-0.013
86764,0.879,-0.012,-9.419,-0.008,0.007,-0.013
86867,0.871,-0.014,-9.419,-0.008,0.007,-0.013
86970,0.881,-0.005,-9.4,-0.009,0.007,-0.013
87073,0.883,-0.014,-9.421,-0.008,0.007,-0.013
87176,0.881,-0.007,-9.421,-0.009,0.007,-0.014
87279,0.869,-0.002,-9.424,-0.009,0.007,-0.013
87382,0.867,-0.01,-9.412,-0.008,0.007,-0.013
87485,0.879,-0.002,-9.419,-0.009,0.007,-0.013
87588,0.871,-0.007,-9.416,-0.008,0.006,-0.013
87691,0.871,-0.002,-9.414,-0.008,0.007,-0.014
87794,0.886,-0.01,-9.414,-0.009,0.007,-0.013
87897,0.874,-0.012,-9.412,-0.009,0.007,-0.013
88000,0.869,-0.007,-9.414,-0.008,0.007,-0.013
88103,0.881,-0.005,-9.421,-0.008,0.007,-0.013
88206,0.867,0.002,-9.421,-0.009,0.007,-0.013
88309,0.879,-0.012,-9.426,-0.009,0.007,-0.013
88412,0.888,-0.007,-9.419,-0.008,0.007,-0.013
88515,0.869,-0.017,-9.402,-0.009,0.007,-0.013
88618,0.883,-0.005,-9.421,-0.008,0.007,-0.013
88721,0.864,-0.002,-9.424,-0.009,0.007,-0.013
88824,0.876,-0.007,-9.421,-0.009,0.007,-0.013
88927,0.874,-0.012,-9.419,-0.008,0.007,-0.014
89030,0.86,-0.007,-9.416,-0.008,0.007,-0.013
89133,0.874,-0.007,-9.419,-0.009,0.007,-0.013
89236,0.871,-0.005,-9.404,-0.009,0.007,-0.013
89339,0.871,-0.005,-9.416,-0.009,0.007,-0.013
89442,0.876,-0.01,-9.424,-0.008,0.007,-0.013
89545,0.874,-0.002,-9.438,-0.008,0.007,-0.012
89648,0.867,-0.005,-9.414,-0.008,0.007,-0.013
89751,0.881,-0.007,-9.421,-0.008,0.007,-0.013
89854,0.876,-0.005,-9.392,-0.008,0.007,-0.013
89957,0.869,-0.014,-9.414,-0.008,0.007,-0.013
90060,0.879,-0.002,-9.412,-0.009,0.007,-0.013
90163,0.879,-0.012,-9.424,-0.009,0.007,-0.013
90266,0.888,-0.01,-9.414,-0.008,0.007,-0.013
90369,0.891,-0.01,-9.412,-0.009,0.007,-0.013
90472,0.871,-0.012,-9.412,-0.009,0.007,-0.013
90575,0.881,-0.01,-9.407,-0.008,0.007,-0.013
90678,0.874,0.0,-9.421,-0.008,0.007,-0.013
90781,0.874,-0.014,-9.412,-0.008,0.007,-0.013
90884,0.893,-0.007,-9.424,-0.009,0.007,-0.013
90987,0.773,0.005,-9.388,-0.004,0.059,-0.01
91090,1.19,-0.031,-9.397,-0.002,0.119,-0.01
91193,1.171,-0.026,-9.378,-0.008,0.011,-0.013
91296,1.156,-0.026,-9.385,-0.008,0.007,-0.013
91399,1.154,-0.034,-9.39,-0.008,0.007,-0.013
91502,1.154,-0.029,-9.373,-0.008,0.007,-0.013
91605,1.156,-0.031,-9.376,-0.008,0.007,-0.013
91708,1.154,-0.026,-9.395,-0.008,0.007,-0.013
91811,1.164,-0.022,-9.385,-0.008,0.007,-0.014
91914,1.156,-0.031,-9.4,-0.008,0.007,-0.013
92017,1.159,-0.026,-9.385,-0.008,0.007,-0.013
92120,1.142,-0.036,-9.39,-0.008,0.007,-0.013
92223,1.159,-0.022,-9.373,-0.008,0.007,-0.014
92326,1.171,-0.017,-9.378,-0.008,0.007,-0.013
92429,1.154,-0.022,-9.385,-0.009,0.007,-0.013
92532,1.152,-0.022,-9.385,-0.008,0.007,-0.013
92635,1.159,-0.024,-9.376,-0.009,0.007,-0.013
92738,1.161,-0.034,-9.371,-0.009,0.007,-0.014
92841,1.168,-0.026,-9.385,-0.008,0.007,-0.013
92944,1.156,-0.026,-9.385,-0.008,0.007,-0.013
93047,1.164,-0.036,-9.385,-0.008,0.007,-0.013
93150,1.159,-0.017,-9.38,-0.009,0.007,-0.013
93253,1.14,-0.031,-9.376,-0.008,0.007,-0.013
93356,1.161,-0.029,-9.376,-0.009,0.007,-0.013
93459,1.164,-0.022,-9.373,-0.009,0.007,-0.013
93562,1.156,-0.026,-9.376,-0.008,0.007,-0.013
93665,1.159,-0.022,-9.383,-0.008,0.007,-0.013
93768,1.161,-0.031,-9.38,-0.008,0.007,-0.013
93871,1.152,-0.041,-9.385,-0.009,0.007,-0.013
93974,1.166,-0.024,-9.383,-0.008,0.007,-0.014
94077,1.159,-0.029,-9.392,-0.008,0.007,-0.013
94180,1.159,-0.029,-9.373,-0.008,0.007,-0.013
94283,1.156,-0.031,-9.383,-0.008,0.007,-0.013
94386,1.164,-0.029,-9.359,-0.009,0.007,-0.013
94489,1.164,-0.022,-9.392,-0.009,0.007,-0.013
94592,1.152,-0.029,-9.383,-0.008,0.007,-0.013
94695,1.159,-0.026,-9.392,-0.008,0.007,-0.014
94798,1.161,-0.019,-9.39,-0.008,0.007,-0.013
94901,1.156,-0.024,-9.38,-0.008,0.007,-0.013
95004,1.159,-0.034,-9.39,-0.009,0.007,-0.013
95107,1.168,-0.024,-9.39,-0.009,0.007,-0.013
95210,1.154,-0.031,-9.39,-0.008,0.007,-0.013
95313,1.154,-0.029,-9.376,-0.009,0.007,-0.013
95416,1.154,-0.017,-9.385,-0.008,0.007,-0.013
95519,1.159,-0.031,-9.38,-0.009,0.007,-0.013
95622,1.159,-0.031,-9.4,-0.009,0.007,-0.013
95725,1.154,-0.031,-9.383,-0.008,0.007,-0.013
95828,1.154,-0.022,-9.388,-0.008,0.007,-0.013
95931,1.164,-0.022,-9.369,-0.008,0.007,-0.014
96034,1.159,-0.026,-9.385,-0.008,0.007,-0.013
96137,1.161,-0.029,-9.385,-0.008,0.007,-0.014
96240,1.159,-0.029,-9.39,-0.008,0.007,-0.013
96343,1.144,-0.031,-9.378,-0.009,0.007,-0.013
96446,1.168,-0.024,-9.376,-0.008,0.007,-0.013
96549,1.161,-0.029,-9.376,-0.008,0.007,-0.013
96652,1.164,-0.024,-9.385,-0.009,0.007,-0.013
96755,1.168,-0.029,-9.383,-0.009,0.007,-0.013
96858,1.156,-0.034,-9.383,-0.008,0.007,-0.013
96961,1.159,-0.026,-9.373,-0.008,0.007,-0.013
97064,1.164,-0.014,-9.402,-0.008,0.007,-0.014
97167,1.149,-0.031,-9.38,-0.008,0.007,-0.013
97270,1.161,-0.024,-9.376,-0.008,0.007,-0.013
97373,1.166,-0.029,-9.385,-0.009,0.007,-0.013
97476,1.156,-0.026,-9.392,-0.008,0.007,-0.013
97579,1.166,-0.019,-9.371,-0.009,0.007,-0.013
97682,1.159,-0.031,-9.371,-0.008,0.007,-0.013
97785,1.159,-0.031,-9.383,-0.008,0.007,-0.013
97888,1.176,-0.031,-9.38,-0.008,0.007,-0.013
97991,1.159,-0.026,-9.388,-0.008,0.007,-0.013
98094,1.166,-0.017,-9.378,-0.009,0.007,-0.013
98197,1.161,-0.031,-9.388,-0.009,0.007,-0.013
98300,1.154,-0.024,-9.369,-0.009,0.007,-0.013
98403,1.171,-0.029,-9.371,-0.009,0.007,-0.013
98506,1.159,-0.024,-9.378,-0.009,0.007,-0.013
98609,1.149,-0.034,-9.395,-0.008,0.007,-0.013
98712,1.156,-0.026,-9.388,-0.009,0.007,-0.013
98815,1.152,-0.031,-9.392,-0.009,0.007,-0.013
98918,1.156,-0.029,-9.38,-0.008,0.007,-0.013
99021,1.164,-0.026,-9.378,-0.008,0.007,-0.013
99124,1.161,-0.031,-9.388,-0.008,0.007,-0.013
99227,1.164,-0.031,-9.371,-0.008,0.007,-0.014
99330,1.171,-0.029,-9.385,-0.009,0.007,-0.013
99433,1.154,-0.026,-9.373,-0.009,0.007,-0.013
99536,1.159,-0.029,-9.407,-0.009,0.007,-0.013
99639,1.156,-0.026,-9.395,-0.008,0.007,-0.013
99742,1.149,-0.024,-9.383,-0.009,0.007,-0.013
99845,1.166,-0.034,-9.38,-0.009,0.007,-0.014
99948,1.161,-0.022,-9.378,-0.009,0.007,-0.014
100051,1.154,-0.029,-9.383,-0.008,0.007,-0.013
100154,1.159,-0.026,-9.388,-0.009,0.007,-0.013
100257,1.156,-0.038,-9.373,-0.008,0.007,-0.013
100360,1.166,-0.038,-9.38,-0.009,0.007,-0.013
100463,1.161,-0.029,-9.39,-0.009,0.006,-0.013
100566,1.161,-0.041,-9.378,-0.009,0.007,-0.013
100669,1.154,-0.022,-9.383,-0.008,0.007,-0.014
100772,1.156,-0.026,-9.383,-0.008,0.007,-0.013
100875,1.166,-0.029,-9.385,-0.009,0.007,-0.013
100978,1.166,-0.038,-9.38,-0.009,0.007,-0.014
101081,1.161,-0.026,-9.38,-0.008,0.007,-0.013
101184,1.166,-0.026,-9.376,-0.008,0.007,-0.013
101287,1.164,-0.022,-9.392,-0.009,0.007,-0.013
101390,1.152,-0.031,-9.38,-0.009,0.008,-0.013
101493,1.154,-0.024,-9.373,-0.009,0.007,-0.013
101596,1.166,-0.022,-9.38,-0.008,0.007,-0.013
101699,1.152,-0.026,-9.378,-0.009,0.007,-0.013
101802,1.164,-0.019,-9.383,-0.008,0.007,-0.013
101905,1.166,-0.019,-9.366,-0.008,0.007,-0.013
102008,1.161,-0.029,-9.383,-0.008,0.007,-0.013
102111,1.166,-0.022,-9.395,-0.009,0.007,-0.013
102214,1.154,-0.034,-9.39,-0.008,0.007,-0.013
102317,1.173,-0.034,-9.388,-0.008,0.007,-0.013
102420,1.166,-0.036,-9.371,-0.008,0.007,-0.013
102523,1.166,-0.034,-9.383,-0.008,0.007,-0.013
102626,1.159,-0.024,-9.373,-0.009,0.007,-0.013
102729,1.154,-0.022,-9.385,-0.008,0.007,-0.013
102832,1.164,-0.034,-9.383,-0.008,0.007,-0.014
102935,1.168,-0.031,-9.385,-0.009,0.007,-0.013
103038,1.159,-0.026,-9.371,-0.009,0.007,-0.013
103141,1.159,-0.029,-9.38,-0.009,0.007,-0.013
103244,1.152,-0.029,-9.38,-0.008,0.007,-0.013
103347,1.159,-0.022,-9.385,-0.009,0.007,-0.013
103450,1.159,-0.019,-9.383,-0.009,0.007,-0.013
103553,1.161,-0.029,-9.39,-0.008,0.007,-0.013
103656,1.159,-0.019,-9.376,-0.009,0.007,-0.013
103759,1.159,-0.029,-9.371,-0.009,0.007,-0.014
103862,1.152,-0.038,-9.373,-0.008,0.007,-0.013
103965,1.164,-0.026,-9.371,-0.009,0.007,-0.013
104068,1.156,-0.031,-9.378,-0.009,0.007,-0.013
104171,1.159,-0.029,-9.369,-0.008,0.007,-0.013
104274,1.156,-0.029,-9.371,-0.009,0.007,-0.013
104377,1.164,-0.017,-9.369,-0.008,0.007,-0.013
104480,1.159,-0.024,-9.376,-0.008,0.007,-0.013
104583,1.166,-0.031,-9.383,-0.009,0.007,-0.013
104686,1.147,-0.026,-9.378,-0.008,0.007,-0.013
104789,1.156,-0.024,-9.373,-0.008,0.007,-0.013
104892,1.156,-0.019,-9.376,-0.009,0.007,-0.013
104995,1.152,-0.014,-9.383,-0.008,0.007,-0.013
105098,1.154,-0.031,-9.383,-0.008,0.007,-0.013
105201,1.171,-0.029,-9.39,-0.009,0.007,-0.013
105304,1.159,-0.034,-9.392,-0.008,0.007,-0.013
105407,1.168,-0.026,-9.388,-0.008,0.007,-0.013
105510,1.161,-0.029,-9.383,-0.008,0.007,-0.013
105613,1.156,-0.026,-9.383,-0.008,0.007,-0.013
105716,1.154,-0.022,-9.366,-0.008,0.007,-0.013
105819,1.156,-0.022,-9.378,-0.009,0.007,-0.013
105922,1.154,-0.031,-9.38,-0.008,0.007,-0.013
106025,1.166,-0.029,-9.395,-0.008,0.007,-0.013
106128,1.154,-0.041,-9.383,-0.008,0.007,-0.014
106231,1.149,-0.019,-9.376,-0.009,0.007,-0.013
106334,1.166,-0.029,-9.397,-0.008,0.007,-0.013
106437,1.152,-0.024,-9.376,-0.009,0.007,-0.013
106540,1.166,-0.026,-9.388,-0.009,0.007,-0.013
106643,1.156,-0.043,-9.4,-0.009,0.007,-0.013
106746,1.159,-0.031,-9.383,-0.008,0.007,-0.014
106849,1.166,-0.022,-9.392,-0.009,0.007,-0.013
106952,1.161,-0.034,-9.378,-0.008,0.007,-0.013
107055,1.149,-0.029,-9.39,-0.008,0.007,-0.013
107158,1.166,-0.029,-9.39,-0.008,0.007,-0.013
107261,1.154,-0.029,-9.38,-0.008,0.007,-0.013
107364,1.166,-0.026,-9.395,-0.009,0.007,-0.014
107467,1.166,-0.031,-9.371,-0.009,0.007,-0.013
107570,1.154,-0.026,-9.38,-0.008,0.007,-0.014
107673,1.156,-0.031,-9.385,-0.008,0.007,-0.013
107776,1.154,-0.022,-9.376,-0.008,0.007,-0.013
107879,1.161,-0.031,-9.378,-0.008,0.007,-0.013
107982,1.152,-0.036,-9.371,-0.008,0.007,-0.013
108085,1.164,-0.029,-9.388,-0.009,0.007,-0.014
108188,1.147,-0.031,-9.392,-0.008,0.007,-0.013
108291,1.159,-0.024,-9.395,-0.008,0.007,-0.013
108394,1.159,-0.029,-9.39,-0.008,0.007,-0.013
108497,1.168,-0.031,-9.376,-0.008,0.007,-0.014
108600,1.156,-0.029,-9.378,-0.009,0.007,-0.013
108703,1.156,-0.029,-9.378,-0.009,0.007,-0.013
108806,1.161,-0.017,-9.383,-0.008,0.007,-0.013
108909,1.161,-0.019,-9.378,-0.008,0.007,-0.013
109012,1.159,-0.031,-9.385,-0.008,0.007,-0.014
109115,1.164,-0.036,-9.378,-0.008,0.007,-0.013
109218,1.149,-0.034,-9.383,-0.009,0.007,-0.013
109321,1.156,-0.026,-9.38,-0.008,0.007,-0.013
109424,1.166,-0.026,-9.392,-0.008,0.007,-0.013
109527,1.154,-0.024,-9.371,-0.008,0.007,-0.013
109630,1.156,-0.029,-9.39,-0.008,0.007,-0.013
109733,1.161,-0.026,-9.388,-0.008,0.007,-0.013
109836,1.164,-0.017,-9.392,-0.008,0.007,-0.013
109939,1.168,-0.029,-9.39,-0.008,0.007,-0.013
110042,1.152,-0.022,-9.392,-0.008,0.007,-0.013
110145,1.152,-0.036,-9.378,-0.009,0.007,-0.013
110248,1.168,-0.026,-9.385,-0.009,0.007,-0.013
110351,1.149,-0.036,-9.385,-0.008,0.007,-0.013
110454,1.159,-0.026,-9.378,-0.009,0.007,-0.014
110557,1.166,-0.029,-9.378,-0.009,0.007,-0.013
110660,1.156,-0.024,-9.388,-0.008,0.007,-0.013
110763,1.156,-0.029,-9.378,-0.009,0.007,-0.013
110866,1.161,-0.024,-9.383,-0.008,0.007,-0.013
110969,1.161,-0.034,-9.378,-0.009,0.007,-0.013
111072,1.173,-0.034,-9.383,-0.008,0.007,-0.013
111175,1.164,-0.034,-9.376,-0.009,0.007,-0.013
111278,1.156,-0.022,-9.376,-0.009,0.007,-0.013
111381,1.161,-0.022,-9.388,-0.008,0.007,-0.013
111484,1.156,-0.036,-9.385,-0.009,0.007,-0.013
111587,1.161,-0.026,-9.383,-0.008,0.006,-0.013
111690,1.161,-0.029,-9.38,-0.008,0.007,-0.013
111793,1.156,-0.026,-9.373,-0.009,0.007,-0.013
111896,1.164,-0.031,-9.366,-0.008,0.008,-0.013
111999,1.168,-0.038,-9.38,-0.008,0.007,-0.013
112102,1.161,-0.031,-9.361,-0.009,0.007,-0.013
112205,1.166,-0.024,-9.376,-0.008,0.007,-0.013
112308,1.152,-0.031,-9.388,-0.008,0.007,-0.013
112411,1.152,-0.024,-9.383,-0.008,0.007,-0.013
112514,1.166,-0.038,-9.385,-0.009,0.007,-0.013
112617,1.149,-0.024,-9.39,-0.008,0.007,-0.013
112720,1.161,-0.024,-9.376,-0.009,0.007,-0.013
112823,1.164,-0.029,-9.378,-0.008,0.007,-0.013
112926,1.152,-0.041,-9.385,-0.008,0.007,-0.013
113029,1.159,-0.026,-9.385,-0.008,0.007,-0.013
113132,1.149,-0.029,-9.388,-0.008,0.007,-0.013
113235,1.156,-0.036,-9.385,-0.009,0.007,-0.013
113338,1.159,-0.024,-9.392,-0.008,0.007,-0.013
113441,1.154,-0.019,-9.38,-0.009,0.007,-0.013
113544,1.168,-0.029,-9.366,-0.009,0.007,-0.013
113647,1.154,-0.024,-9.376,-0.008,0.007,-0.013
113750,1.156,-0.026,-9.397,-0.008,0.007,-0.013
113853,1.156,-0.031,-9.383,-0.008,0.007,-0.013
113956,1.166,-0.026,-9.376,-0.009,0.007,-0.013
114059,1.156,-0.026,-9.378,-0.009,0.007,-0.013
114162,1.166,-0.026,-9.385,-0.008,0.007,-0.013
114265,1.152,-0.031,-9.383,-0.009,0.007,-0.013
114368,1.161,-0.036,-9.383,-0.009,0.007,-0.014
114471,1.164,-0.026,-9.39,-0.008,0.007,-0.013
114574,1.159,-0.034,-9.385,-0.008,0.007,-0.013
114677,1.156,-0.029,-9.383,-0.008,0.007,-0.013
114780,1.156,-0.024,-9.385,-0.008,0.007,-0.013
114883,1.156,-0.029,-9.373,-0.008,0.007,-0.013
114986,1.159,-0.022,-9.397,-0.008,0.007,-0.013
115089,1.161,-0.022,-9.373,-0.008,0.007,-0.013
115192,1.156,-0.019,-9.392,-0.008,0.007,-0.013
115295,1.156,-0.041,-9.38,-0.008,0.007,-0.013
115398,1.156,-0.034,-9.383,-0.009,0.007,-0.013
115501,1.164,-0.038,-9.373,-0.009,0.007,-0.013
115604,1.159,-0.031,-9.388,-0.009,0.007,-0.013
115707,1.159,-0.029,-9.378,-0.008,0.007,-0.013
115810,1.161,-0.029,-9.39,-0.009,0.007,-0.013
115913,1.156,-0.031,-9.383,-0.009,0.007,-0.013
116016,1.156,-0.031,-9.369,-0.008,0.007,-0.013
116119,1.164,-0.031,-9.39,-0.009,0.007,-0.013
116222,1.156,-0.024,-9.378,-0.008,0.007,-0.013
116325,1.161,-0.026,-9.371,-0.009,0.007,-0.013
116428,1.154,-0.022,-9.39,-0.008,0.007,-0.013
116531,1.154,-0.026,-9.392,-0.009,0.007,-0.013
116634,1.161,-0.029,-9.38,-0.009,0.007,-0.013
116737,1.14,-0.031,-9.378,-0.008,0.007,-0.013
116840,1.159,-0.034,-9.388,-0.008,0.007,-0.013
116943,1.159,-0.024,-9.378,-0.009,0.007,-0.014
117046,1.161,-0.029,-9.383,-0.008,0.007,-0.012
117149,1.154,-0.026,-9.378,-0.009,0.007,-0.013
117252,1.164,-0.034,-9.402,-0.008,0.007,-0.014
117355,1.156,-0.029,-9.385,-0.008,0.007,-0.013
117458,1.161,-0.014,-9.38,-0.008,0.007,-0.013
117561,1.156,-0.026,-9.388,-0.008,0.007,-0.013
117664,1.159,-0.024,-9.378,-0.008,0.007,-0.013
117767,1.168,-0.017,-9.383,-0.008,0.007,-0.013
117870,1.154,-0.029,-9.378,-0.008,0.007,-0.013
117973,1.149,-0.019,-9.383,-0.009,0.007,-0.013
118076,1.159,-0.031,-9.376,-0.009,0.007,-0.013
118179,1.156,-0.029,-9.371,-0.008,0.007,-0.013
118282,1.152,-0.029,-9.392,-0.008,0.007,-0.013
118385,1.159,-0.029,-9.385,-0.008,0.007,-0.013
118488,1.156,-0.026,-9.388,-0.008,0.007,-0.013
118591,1.176,-0.026,-9.38,-0.009,0.007,-0.013
118694,1.156,-0.031,-9.369,-0.008,0.007,-0.013
118797,1.154,-0.024,-9.378,-0.008,0.007,-0.014
118900,1.166,-0.029,-9.39,-0.009,0.007,-0.013
119003,1.164,-0.031,-9.388,-0.009,0.007,-0.013
119106,1.161,-0.026,-9.376,-0.009,0.007,-0.013
119209,1.164,-0.024,-9.4,-0.008,0.007,-0.013
119312,1.154,-0.029,-9.376,-0.008,0.007,-0.013
119415,1.154,-0.038,-9.39,-0.008,0.007,-0.013
119518,1.161,-0.034,-9.378,-0.008,0.007,-0.013
119621,1.152,-0.026,-9.38,-0.008,0.007,-0.013
119724,1.164,-0.022,-9.383,-0.009,0.007,-0.013
119827,1.159,-0.036,-9.373,-0.008,0.007,-0.013
119930,1.149,-0.026,-9.383,-0.008,0.007,-0.013
120033,1.168,-0.031,-9.39,-0.009,0.007,-0.013
120136,1.149,-0.034,-9.378,-0.009,0.007,-0.013
120239,1.156,-0.026,-9.378,-0.009,0.007,-0.013
120342,1.168,-0.036,-9.38,-0.009,0.007,-0.013
120445,1.154,-0.034,-9.39,-0.008,0.007,-0.013
120548,1.171,-0.024,-9.385,-0.009,0.007,-0.014
120651,1.168,-0.034,-9.388,-0.009,0.007,-0.013
120754,1.161,-0.036,-9.38,-0.009,0.007,-0.013
120857,1.159,-0.022,-9.404,-0.009,0.007,-0.013
120960,1.152,-0.036,-9.385,-0.008,0.007,-0.013
121063,1.156,-0.026,-9.376,-0.009,0.007,-0.013
121166,1.161,-0.022,-9.378,-0.009,0.007,-0.013
121269,1.154,-0.031,-9.38,-0.008,0.007,-0.013
121372,1.161,-0.024,-9.383,-0.008,0.007,-0.013
121475,1.152,-0.022,-9.397,-0.008,0.007,-0.013
121578,1.149,-0.019,-9.395,-0.008,0.007,-0.013
121681,1.159,-0.029,-9.378,-0.009,0.007,-0.013
121784,1.159,-0.031,-9.38,-0.008,0.007,-0.013
121887,1.166,-0.034,-9.364,-0.008,0.007,-0.013
121990,1.166,-0.031,-9.392,-0.009,0.007,-0.013
122093,1.166,-0.034,-9.388,-0.008,0.007,-0.013
122196,1.164,-0.029,-9.392,-0.008,0.007,-0.013
122299,1.168,-0.022,-9.388,-0.008,0.007,-0.013
122402,1.173,-0.031,-9.376,-0.008,0.007,-0.013
122505,1.159,-0.026,-9.38,-0.008,0.007,-0.013
122608,1.161,-0.031,-9.38,-0.009,0.007,-0.013
122711,1.154,-0.029,-9.373,-0.008,0.007,-0.013
122814,1.159,-0.022,-9.378,-0.008,0.007,-0.013
122917,1.156,-0.024,-9.395,-0.008,0.007,-0.013
123020,1.156,-0.014,-9.371,-0.009,0.007,-0.013
123123,1.168,-0.017,-9.376,-0.009,0.007,-0.013
123226,1.149,-0.029,-9.373,-0.009,0.007,-0.013
123329,1.156,-0.026,-9.371,-0.008,0.007,-0.014
123432,1.164,-0.031,-9.383,-0.008,0.007,-0.013
123535,1.149,-0.036,-9.378,-0.008,0.007,-0.013
123638,1.164,-0.029,-9.378,-0.009,0.007,-0.013
123741,1.159,-0.031,-9.385,-0.009,0.007,-0.013
123844,1.152,-0.031,-9.373,-0.008,0.007,-0.013
123947,1.166,-0.038,-9.373,-0.008,0.007,-0.013
124050,1.161,-0.034,-9.373,-0.008,0.007,-0.013
124153,1.154,-0.024,-9.383,-0.008,0.007,-0.013
124256,1.164,-0.031,-9.388,-0.009,0.007,-0.013
124359,1.161,-0.031,-9.378,-0.009,0.007,-0.013
124462,1.159,-0.026,-9.39,-0.009,0.008,-0.013
124565,1.164,-0.029,-9.383,-0.008,0.007,-0.013
124668,1.154,-0.034,-9.373,-0.008,0.007,-0.013
124771,1.166,-0.026,-9.378,-0.008,0.007,-0.013
124874,1.164,-0.026,-9.378,-0.008,0.007,-0.013
124977,1.156,-0.022,-9.383,-0.008,0.007,-0.013
125080,1.168,-0.029,-9.39,-0.009,0.007,-0.013
125183,1.152,-0.029,-9.376,-0.008,0.007,-0.013
125286,1.164,-0.022,-9.385,-0.008,0.007,-0.013
125389,1.161,-0.024,-9.373,-0.008,0.008,-0.014
125492,1.166,-0.019,-9.376,-0.009,0.007,-0.013
125595,1.164,-0.029,-9.407,-0.008,0.007,-0.013
125698,1.166,-0.019,-9.373,-0.007,0.007,-0.013
125801,1.156,-0.026,-9.369,-0.008,0.007,-0.013
125904,1.161,-0.017,-9.376,-0.009,0.007,-0.014
126007,1.161,-0.026,-9.376,-0.008,0.007,-0.013
126110,1.154,-0.019,-9.371,-0.009,0.007,-0.013
126213,1.161,-0.029,-9.392,-0.009,0.007,-0.013
126316,1.13,-0.024,-9.395,-0.008,0.007,-0.013
126419,1.149,-0.041,-9.39,-0.009,0.007,-0.013
126522,1.142,-0.024,-9.366,-0.009,0.007,-0.013
126625,1.152,-0.038,-9.378,-0.008,0.007,-0.013
126728,1.164,-0.031,-9.38,-0.008,0.007,-0.013
126831,1.164,-0.031,-9.39,-0.009,0.007,-0.013
126934,1.152,-0.034,-9.395,-0.009,0.007,-0.013
127037,1.159,-0.019,-9.388,-0.008,0.007,-0.013
127140,1.166,-0.029,-9.385,-0.008,0.007,-0.013
127243,1.156,-0.029,-9.38,-0.008,0.007,-0.013
127346,1.159,-0.026,-9.392,-0.009,0.007,-0.013
127449,1.149,-0.029,-9.378,-0.008,0.007,-0.013
127552,1.159,-0.034,-9.38,-0.008,0.007,-0.013
127655,1.166,-0.034,-9.38,-0.009,0.007,-0.013
127758,1.152,-0.024,-9.378,-0.008,0.007,-0.013
127861,1.164,-0.031,-9.38,-0.009,0.007,-0.013
127964,1.156,-0.022,-9.38,-0.008,0.007,-0.013
128067,1.154,-0.024,-9.388,-0.008,0.007,-0.013
128170,1.168,-0.022,-9.39,-0.008,0.007,-0.013
128273,1.149,-0.029,-9.376,-0.008,0.007,-0.013
128376,1.164,-0.029,-9.378,-0.008,0.007,-0.014
128479,1.159,-0.026,-9.385,-0.008,0.007,-0.013
128582,1.152,-0.026,-9.371,-0.008,0.007,-0.013
128685,1.166,-0.029,-9.383,-0.008,0.007,-0.013
128788,1.168,-0.034,-9.392,-0.008,0.007,-0.013
128891,1.161,-0.034,-9.392,-0.009,0.007,-0.013
128994,1.152,-0.017,-9.392,-0.009,0.007,-0.013
129097,1.161,-0.026,-9.373,-0.009,0.007,-0.013
129200,1.159,-0.024,-9.395,-0.009,0.007,-0.013
129303,1.173,-0.019,-9.392,-0.008,0.007,-0.013
129406,1.161,-0.034,-9.371,-0.009,0.007,-0.013
129509,1.152,-0.022,-9.383,-0.009,0.007,-0.013
129612,1.156,-0.022,-9.395,-0.008,0.007,-0.013
129715,1.147,-0.029,-9.395,-0.008,0.007,-0.013
129818,1.166,-0.026,-9.388,-0.009,0.007,-0.013
129921,1.168,-0.017,-9.373,-0.008,0.007,-0.013
130024,1.166,-0.029,-9.38,-0.008,0.007,-0.013
130127,1.164,-0.031,-9.373,-0.009,0.007,-0.013
130230,1.156,-0.029,-9.383,-0.009,0.007,-0.013
130333,1.159,-0.031,-9.385,-0.009,0.007,-0.013
130436,1.161,-0.024,-9.39,-0.008,0.007,-0.013
130539,1.132,-0.029,-9.38,-0.008,0.007,-0.013
130642,1.159,-0.029,-9.388,-0.009,0.007,-0.013
130745,1.152,-0.036,-9.369,-0.009,0.007,-0.013
130848,1.147,-0.031,-9.371,-0.008,0.007,-0.013
130951,1.156,-0.026,-9.369,-0.008,0.007,-0.013
131054,1.149,-0.026,-9.383,-0.008,0.007,-0.013
131157,1.156,-0.036,-9.388,-0.008,0.007,-0.013
131260,1.164,-0.026,-9.4,-0.009,0.007,-0.013
131363,1.159,-0.038,-9.383,-0.008,0.007,-0.013
131466,1.164,-0.031,-9.371,-0.008,0.007,-0.013
131569,1.168,-0.031,-9.373,-0.009,0.007,-0.013
131672,1.142,-0.024,-9.388,-0.008,0.007,-0.013
131775,1.161,-0.034,-9.385,-0.008,0.007,-0.014
131878,1.168,-0.024,-9.385,-0.009,0.007,-0.013
131981,1.166,-0.038,-9.383,-0.009,0.007,-0.013
132084,1.164,-0.022,-9.373,-0.009,0.007,-0.013
132187,1.164,-0.031,-9.388,-0.008,0.007,-0.013
132290,1.149,-0.034,-9.378,-0.008,0.007,-0.013
132393,1.154,-0.024,-9.373,-0.008,0.007,-0.013
132496,1.156,-0.026,-9.38,-0.008,0.007,-0.013
132599,1.159,-0.026,-9.371,-0.009,0.007,-0.013
132702,1.173,-0.029,-9.388,-0.008,0.007,-0.013
132805,1.156,-0.031,-9.39,-0.009,0.007,-0.013
132908,1.156,-0.026,-9.385,-0.008,0.007,-0.013
133011,1.161,-0.026,-9.397,-0.008,0.007,-0.013
133114,1.152,-0.024,-9.371,-0.008,0.007,-0.013
133217,1.161,-0.024,-9.378,-0.008,0.007,-0.013
133320,1.159,-0.031,-9.371,-0.008,0.007,-0.013
133423,1.154,-0.024,-9.38,-0.009,0.007,-0.013
133526,1.161,-0.031,-9.376,-0.008,0.007,-0.013
133629,1.159,-0.024,-9.388,-0.008,0.007,-0.013
133732,1.161,-0.034,-9.38,-0.009,0.007,-0.013
133835,1.161,-0.038,-9.383,-0.008,0.007,-0.013
133938,1.144,-0.041,-9.378,-0.009,0.007,-0.013
134041,1.156,-0.026,-9.388,-0.009,0.007,-0.013
134144,1.156,-0.026,-9.39,-0.008,0.007,-0.013
134247,1.154,-0.031,-9.392,-0.008,0.007,-0.013
134350,1.171,-0.034,-9.385,-0.008,0.007,-0.013
134453,1.156,-0.031,-9.392,-0.008,0.007,-0.013
134556,1.161,-0.019,-9.371,-0.008,0.007,-0.013
134659,1.161,-0.022,-9.376,-0.008,0.007,-0.013
134762,1.154,-0.031,-9.371,-0.008,0.007,-0.013
134865,1.154,-0.022,-9.388,-0.008,0.007,-0.014
134968,1.161,-0.026,-9.38,-0.008,0.007,-0.013
135071,1.154,-0.034,-9.378,-0.009,0.007,-0.014
135174,1.164,-0.024,-9.38,-0.008,0.007,-0.013
135277,1.161,-0.026,-9.371,-0.008,0.007,-0.013
135380,1.164,-0.029,-9.378,-0.008,0.007,-0.013
135483,1.166,-0.019,-9.376,-0.008,0.007,-0.013
135586,1.156,-0.031,-9.378,-0.008,0.007,-0.013
135689,1.159,-0.034,-9.392,-0.008,0.007,-0.013
135792,1.166,-0.029,-9.388,-0.008,0.007,-0.013
135895,1.168,-0.029,-9.385,-0.008,0.007,-0.013
135998,1.168,-0.031,-9.38,-0.009,0.007,-0.014
136101,1.156,-0.026,-9.388,-0.008,0.007,-0.013
136204,1.161,-0.026,-9.38,-0.008,0.007,-0.013
136307,1.168,-0.036,-9.383,-0.008,0.007,-0.013
136410,1.161,-0.034,-9.366,-0.009,0.007,-0.013
136513,1.156,-0.026,-9.376,-0.009,0.007,-0.013
136616,1.166,-0.026,-9.376,-0.008,0.007,-0.013
136719,1.156,-0.024,-9.39,-0.009,0.007,-0.013
136822,1.173,-0.029,-9.371,-0.009,0.007,-0.014
136925,1.166,-0.036,-9.361,-0.009,0.007,-0.013
137028,1.156,-0.026,-9.378,-0.009,0.007,-0.013
137131,1.166,-0.029,-9.373,-0.009,0.007,-0.013
137234,1.156,-0.024,-9.369,-0.009,0.007,-0.013
137337,1.161,-0.024,-9.392,-0.008,0.007,-0.013
137440,1.161,-0.024,-9.378,-0.009,0.007,-0.013
137543,1.159,-0.031,-9.369,-0.008,0.007,-0.013
137646,1.156,-0.031,-9.385,-0.009,0.007,-0.013
137749,1.171,-0.019,-9.397,-0.008,0.006,-0.013
137852,1.159,-0.017,-9.373,-0.009,0.007,-0.013
137955,1.164,-0.026,-9.4,-0.008,0.007,-0.013
138058,1.168,-0.031,-9.38,-0.008,0.007,-0.013
138161,1.152,-0.022,-9.378,-0.008,0.007,-0.013
138264,1.168,-0.022,-9.39,-0.009,0.007,-0.013
138367,1.164,-0.026,-9.376,-0.008,0.007,-0.014
138470,1.164,-0.034,-9.383,-0.008,0.007,-0.013
138573,1.166,-0.036,-9.38,-0.008,0.007,-0.013
138676,1.152,-0.029,-9.376,-0.009,0.007,-0.014
138779,1.168,-0.024,-9.383,-0.008,0.007,-0.013
138882,1.154,-0.026,-9.376,-0.008,0.007,-0.013
138985,1.166,-0.024,-9.369,-0.009,0.007,-0.013
139088,1.168,-0.019,-9.39,-0.009,0.008,-0.013
139191,1.156,-0.031,-9.373,-0.009,0.007,-0.013
139294,1.161,-0.024,-9.383,-0.009,0.007,-0.013
139397,1.168,-0.024,-9.378,-0.008,0.007,-0.013
139500,1.152,-0.031,-9.376,-0.009,0.007,-0.014
139603,1.154,-0.026,-9.38,-0.008,0.007,-0.014
139706,1.156,-0.026,-9.376,-0.008,0.007,-0.013
139809,1.156,-0.017,-9.376,-0.008,0.007,-0.013
139912,1.161,-0.022,-9.383,-0.008,0.007,-0.013
140015,1.164,-0.029,-9.373,-0.009,0.007,-0.013
140118,1.149,-0.034,-9.39,-0.008,0.007,-0.013
140221,1.159,-0.017,-9.383,-0.008,0.007,-0.013
140324,1.161,-0.034,-9.366,-0.008,0.007,-0.013
140427,1.152,-0.038,-9.392,-0.009,0.007,-0.013
140530,1.161,-0.029,-9.385,-0.008,0.007,-0.013
140633,1.152,-0.026,-9.373,-0.009,0.007,-0.013
140736,1.164,-0.022,-9.371,-0.009,0.007,-0.013
140839,1.156,-0.034,-9.39,-0.008,0.007,-0.013
140942,1.159,-0.031,-9.376,-0.009,0.007,-0.013
141045,1.154,-0.031,-9.378,-0.008,0.007,-0.013
141148,1.154,-0.019,-9.369,-0.008,0.007,-0.013
141251,1.156,-0.026,-9.371,-0.008,0.007,-0.013
141354,1.173,-0.036,-9.383,-0.008,0.007,-0.013
141457,1.168,-0.022,-9.385,-0.008,0.007,-0.013
141560,1.166,-0.022,-9.4,-0.009,0.007,-0.013
141663,1.161,-0.038,-9.378,-0.008,0.007,-0.013
141766,1.152,-0.026,-9.371,-0.009,0.007,-0.013
141869,1.161,-0.029,-9.378,-0.008,0.007,-0.013
141972,1.159,-0.022,-9.388,-0.008,0.007,-0.013
142075,1.152,-0.026,-9.376,-0.008,0.007,-0.013
142178,1.168,-0.026,-9.39,-0.008,0.007,-0.014
142281,1.161,-0.031,-9.366,-0.008,0.007,-0.013
142384,1.152,-0.026,-9.376,-0.009,0.007,-0.013
142487,1.159,-0.026,-9.38,-0.009,0.007,-0.013
142590,1.159,-0.031,-9.383,-0.008,0.007,-0.013
142693,1.144,-0.026,-9.38,-0.009,0.007,-0.013
142796,1.168,-0.022,-9.38,-0.008,0.007,-0.013
142899,1.144,-0.024,-9.371,-0.008,0.007,-0.013
143002,1.166,-0.029,-9.378,-0.008,0.007,-0.013
143105,1.154,-0.022,-9.373,-0.009,0.007,-0.013
143208,1.166,-0.029,-9.376,-0.008,0.007,-0.013
143311,1.161,-0.024,-9.378,-0.008,0.007,-0.013
143414,1.168,-0.029,-9.376,-0.008,0.007,-0.013
143517,1.149,-0.034,-9.392,-0.008,0.007,-0.014
143620,1.161,-0.019,-9.395,-0.009,0.007,-0.013
143723,1.156,-0.024,-9.39,-0.009,0.007,-0.013
143826,1.159,-0.019,-9.388,-0.008,0.007,-0.013
143929,1.159,-0.019,-9.376,-0.009,0.007,-0.013
144032,1.161,-0.029,-9.388,-0.008,0.007,-0.013
144135,1.154,-0.031,-9.397,-0.009,0.007,-0.013
144238,1.154,-0.034,-9.39,-0.009,0.007,-0.013
144341,1.152,-0.029,-9.378,-0.008,0.007,-0.013
144444,1.171,-0.026,-9.39,-0.009,0.007,-0.013
144547,1.161,-0.019,-9.378,-0.009,0.007,-0.013
144650,1.159,-0.029,-9.369,-0.009,0.007,-0.013
144753,1.171,-0.029,-9.395,-0.009,0.007,-0.013
144856,1.156,-0.026,-9.378,-0.008,0.008,-0.013
144959,1.159,-0.026,-9.366,-0.008,0.007,-0.013
145062,1.156,-0.026,-9.383,-0.009,0.007,-0.013
145165,1.164,-0.014,-9.39,-0.009,0.007,-0.013
145268,1.159,-0.019,-9.388,-0.009,0.007,-0.013
145371,1.152,-0.024,-9.39,-0.008,0.007,-0.013
145474,1.164,-0.024,-9.383,-0.008,0.008,-0.013
145577,1.161,-0.029,-9.373,-0.008,0.007,-0.014
145680,1.149,-0.031,-9.383,-0.008,0.007,-0.013
145783,1.156,-0.019,-9.388,-0.008,0.007,-0.014
145886,1.168,-0.026,-9.364,-0.008,0.007,-0.013
145989,1.152,-0.019,-9.388,-0.008,0.007,-0.013
146092,1.159,-0.031,-9.369,-0.009,0.007,-0.013
146195,1.154,-0.022,-9.378,-0.009,0.007,-0.013
146298,1.154,-0.026,-9.385,-0.008,0.007,-0.013
146401,1.156,-0.026,-9.39,-0.008,0.007,-0.013
146504,1.159,-0.024,-9.383,-0.008,0.007,-0.013
146607,1.154,-0.022,-9.395,-0.009,0.007,-0.013
146710,1.152,-0.014,-9.385,-0.008,0.007,-0.013
146813,1.152,-0.031,-9.366,-0.009,0.007,-0.013
146916,1.161,-0.019,-9.385,-0.008,0.007,-0.013
147019,1.159,-0.019,-9.39,-0.009,0.007,-0.013
147122,1.152,-0.026,-9.383,-0.008,0.007,-0.013
147225,1.149,-0.029,-9.385,-0.009,0.007,-0.013
147328,1.152,-0.029,-9.385,-0.009,0.007,-0.013
147431,1.144,-0.026,-9.38,-0.009,0.007,-0.013
147534,1.156,-0.026,-9.373,-0.009,0.007,-0.013
147637,1.159,-0.024,-9.383,-0.009,0.007,-0.013
147740,1.152,-0.034,-9.373,-0.008,0.007,-0.013
147843,1.166,-0.031,-9.4,-0.008,0.007,-0.013
147946,1.154,-0.031,-9.364,-0.008,0.007,-0.013
148049,1.154,-0.031,-9.388,-0.008,0.007,-0.013
148152,1.156,-0.029,-9.366,-0.008,0.007,-0.013
148255,1.164,-0.031,-9.385,-0.008,0.007,-0.013
148358,1.164,-0.029,-9.383,-0.008,0.007,-0.013
148461,1.156,-0.024,-9.38,-0.009,0.007,-0.013
148564,1.159,-0.014,-9.392,-0.008,0.007,-0.013
148667,1.161,-0.029,-9.38,-0.009,0.007,-0.013
148770,1.154,-0.029,-9.361,-0.008,0.007,-0.013
148873,1.154,-0.022,-9.376,-0.008,0.007,-0.013
148976,1.156,-0.031,-9.378,-0.008,0.008,-0.013
149079,1.152,-0.029,-9.371,-0.008,0.007,-0.013
149182,1.164,-0.038,-9.376,-0.008,0.007,-0.013
149285,1.164,-0.036,-9.373,-0.009,0.007,-0.013
149388,1.156,-0.034,-9.371,-0.009,0.007,-0.013
149491,1.156,-0.026,-9.38,-0.009,0.007,-0.013
149594,1.161,-0.031,-9.383,-0.008,0.007,-0.013
149697,1.164,-0.034,-9.392,-0.008,0.007,-0.013
149800,1.159,-0.026,-9.395,-0.008,0.007,-0.013
149903,1.159,-0.036,-9.385,-0.008,0.007,-0.013
150006,1.161,-0.031,-9.388,-0.008,0.007,-0.013
150109,1.168,-0.024,-9.383,-0.009,0.007,-0.013
150212,1.159,-0.022,-9.383,-0.009,0.007,-0.013
150315,1.166,-0.024,-9.383,-0.008,0.007,-0.013
150418,1.159,-0.026,-9.39,-0.008,0.007,-0.013
150521,1.152,-0.026,-9.376,-0.008,0.007,-0.013
150624,1.166,-0.024,-9.39,-0.009,0.007,-0.013
150727,1.161,-0.031,-9.373,-0.008,0.007,-0.013
150830,1.161,-0.026,-9.371,-0.009,0.007,-0.013
150933,1.164,-0.029,-9.383,-0.008,0.008,-0.013
151036,1.374,-0.05,-9.371,0.01,0.278,-0.009
151139,1.434,-0.041,-9.359,-0.007,0.03,-0.013
151242,1.427,-0.043,-9.33,-0.008,0.008,-0.013
151345,1.437,-0.043,-9.345,-0.008,0.008,-0.013
151448,1.425,-0.041,-9.337,-0.008,0.007,-0.013
151551,1.422,-0.043,-9.342,-0.008,0.007,-0.013
151654,1.429,-0.045,-9.349,-0.009,0.007,-0.013
151757,1.429,-0.045,-9.333,-0.008,0.007,-0.013
151860,1.42,-0.041,-9.337,-0.009,0.007,-0.013
151963,1.434,-0.045,-9.337,-0.008,0.007,-0.013
152066,1.432,-0.043,-9.33,-0.008,0.007,-0.013
152169,1.429,-0.05,-9.335,-0.009,0.007,-0.013
152272,1.434,-0.048,-9.337,-0.008,0.007,-0.013
152375,1.432,-0.043,-9.347,-0.008,0.007,-0.013
152478,1.432,-0.048,-9.34,-0.008,0.007,-0.013
152581,1.432,-0.05,-9.337,-0.009,0.007,-0.013
152684,1.429,-0.048,-9.352,-0.009,0.007,-0.013
152787,1.427,-0.045,-9.34,-0.008,0.007,-0.014
152890,1.432,-0.038,-9.337,-0.008,0.007,-0.013
152993,1.425,-0.036,-9.33,-0.009,0.007,-0.013
153096,1.425,-0.041,-9.33,-0.008,0.007,-0.013
153199,1.427,-0.043,-9.328,-0.009,0.007,-0.013
153302,1.425,-0.043,-9.335,-0.008,0.007,-0.014
153405,1.437,-0.048,-9.335,-0.008,0.007,-0.013
153508,1.432,-0.041,-9.335,-0.008,0.007,-0.013
153611,1.427,-0.041,-9.347,-0.008,0.007,-0.013
153714,1.432,-0.038,-9.345,-0.008,0.007,-0.013
153817,1.425,-0.043,-9.34,-0.008,0.007,-0.013
153920,1.441,-0.041,-9.342,-0.008,0.007,-0.013
154023,1.432,-0.06,-9.325,-0.009,0.007,-0.013
154126,1.42,-0.045,-9.342,-0.009,0.007,-0.013
154229,1.432,-0.038,-9.333,-0.009,0.007,-0.013
154332,1.429,-0.043,-9.357,-0.008,0.007,-0.013
154435,1.425,-0.05,-9.335,-0.009,0.007,-0.013
154538,1.427,-0.043,-9.337,-0.009,0.007,-0.013
154641,1.427,-0.05,-9.33,-0.008,0.007,-0.013
154744,1.427,-0.038,-9.347,-0.008,0.007,-0.014
154847,1.437,-0.043,-9.337,-0.008,0.007,-0.013
154950,1.425,-0.048,-9.335,-0.008,0.007,-0.013
155053,1.429,-0.05,-9.34,-0.009,0.007,-0.013
155156,1.427,-0.055,-9.328,-0.008,0.007,-0.013
155259,1.427,-0.045,-9.349,-0.008,0.007,-0.013
155362,1.432,-0.041,-9.342,-0.008,0.007,-0.013
155465,1.417,-0.048,-9.337,-0.008,0.007,-0.013
155568,1.432,-0.043,-9.323,-0.009,0.007,-0.013
155671,1.422,-0.041,-9.347,-0.008,0.007,-0.013
155774,1.422,-0.043,-9.328,-0.009,0.007,-0.013
155877,1.42,-0.048,-9.352,-0.008,0.007,-0.013
155980,1.434,-0.045,-9.342,-0.008,0.007,-0.013
156083,1.429,-0.043,-9.337,-0.009,0.007,-0.013
156186,1.441,-0.048,-9.342,-0.008,0.007,-0.013
156289,1.425,-0.041,-9.328,-0.008,0.007,-0.013
156392,1.408,-0.048,-9.337,-0.009,0.007,-0.013
156495,1.427,-0.045,-9.349,-0.008,0.007,-0.013
156598,1.427,-0.041,-9.342,-0.008,0.007,-0.013
156701,1.425,-0.045,-9.352,-0.009,0.007,-0.013
156804,1.427,-0.05,-9.34,-0.008,0.007,-0.013
156907,1.422,-0.045,-9.34,-0.008,0.007,-0.013
157010,1.439,-0.05,-9.347,-0.008,0.007,-0.013
157113,1.429,-0.043,-9.347,-0.008,0.007,-0.013
157216,1.427,-0.045,-9.34,-0.009,0.007,-0.013
157319,1.429,-0.048,-9.347,-0.009,0.007,-0.013
157422,1.425,-0.048,-9.347,-0.008,0.007,-0.013
157525,1.427,-0.055,-9.342,-0.008,0.007,-0.013
157628,1.441,-0.041,-9.349,-0.008,0.007,-0.013
157731,1.425,-0.045,-9.335,-0.008,0.007,-0.013
157834,1.425,-0.045,-9.352,-0.008,0.007,-0.013
157937,1.429,-0.041,-9.337,-0.008,0.007,-0.013
158040,1.429,-0.048,-9.345,-0.008,0.007,-0.013
158143,1.439,-0.048,-9.345,-0.008,0.007,-0.013
158246,1.42,-0.038,-9.347,-0.008,0.007,-0.013
158349,1.422,-0.05,-9.357,-0.008,0.007,-0.014
158452,1.429,-0.045,-9.328,-0.008,0.007,-0.014
158555,1.422,-0.043,-9.337,-0.008,0.007,-0.013
158658,1.417,-0.05,-9.335,-0.008,0.007,-0.013
158761,1.427,-0.06,-9.345,-0.008,0.007,-0.013
158864,1.415,-0.055,-9.321,-0.008,0.007,-0.013
158967,1.422,-0.05,-9.349,-0.009,0.007,-0.013
159070,1.432,-0.043,-9.354,-0.008,0.007,-0.013
159173,1.425,-0.045,-9.345,-0.008,0.007,-0.013
159276,1.439,-0.043,-9.347,-0.008,0.007,-0.013
159379,1.429,-0.043,-9.342,-0.008,0.007,-0.013
159482,1.425,-0.057,-9.337,-0.008,0.007,-0.014
159585,1.437,-0.043,-9.337,-0.008,0.007,-0.013
159688,1.432,-0.05,-9.345,-0.008,0.007,-0.013
159791,1.432,-0.06,-9.349,-0.008,0.007,-0.013
159894,1.427,-0.045,-9.349,-0.009,0.007,-0.013
159997,1.427,-0.05,-9.354,-0.008,0.007,-0.013
160100,1.427,-0.048,-9.349,-0.009,0.007,-0.014
160203,1.432,-0.038,-9.345,-0.009,0.007,-0.013
160306,1.429,-0.053,-9.34,-0.008,0.007,-0.013
160409,1.432,-0.05,-9.342,-0.008,0.007,-0.013
160512,1.422,-0.043,-9.337,-0.008,0.007,-0.013
160615,1.425,-0.048,-9.34,-0.008,0.007,-0.013
160718,1.427,-0.043,-9.337,-0.008,0.007,-0.013
160821,1.422,-0.034,-9.333,-0.009,0.007,-0.013
160924,1.425,-0.038,-9.34,-0.008,0.007,-0.013
161027,1.434,-0.045,-9.342,-0.008,0.007,-0.013
161130,1.427,-0.048,-9.333,-0.008,0.007,-0.014
161233,1.434,-0.045,-9.34,-0.009,0.007,-0.013
161336,1.429,-0.041,-9.349,-0.008,0.007,-0.013
161439,1.42,-0.045,-9.349,-0.008,0.007,-0.013
161542,1.444,-0.038,-9.347,-0.008,0.007,-0.014
161645,1.437,-0.045,-9.328,-0.008,0.007,-0.013
161748,1.432,-0.05,-9.345,-0.008,0.007,-0.013
161851,1.425,-0.043,-9.335,-0.008,0.007,-0.013
161954,1.42,-0.045,-9.337,-0.008,0.007,-0.013
162057,1.425,-0.055,-9.342,-0.008,0.007,-0.013
162160,1.417,-0.043,-9.33,-0.008,0.007,-0.013
162263,1.425,-0.038,-9.33,-0.008,0.007,-0.013
162366,1.427,-0.053,-9.342,-0.008,0.007,-0.013
162469,1.422,-0.05,-9.328,-0.008,0.007,-0.013
162572,1.422,-0.038,-9.352,-0.008,0.007,-0.013
162675,1.439,-0.045,-9.345,-0.008,0.007,-0.013
162778,1.434,-0.041,-9.347,-0.008,0.007,-0.013
162881,1.432,-0.045,-9.337,-0.008,0.007,-0.013
162984,1.439,-0.043,-9.342,-0.008,0.007,-0.013
163087,1.425,-0.053,-9.335,-0.008,0.007,-0.013
163190,1.432,-0.045,-9.333,-0.008,0.007,-0.013
163293,1.437,-0.034,-9.349,-0.008,0.007,-0.013
163396,1.42,-0.045,-9.347,-0.008,0.007,-0.013
163499,1.429,-0.048,-9.335,-0.008,0.007,-0.013
163602,1.427,-0.041,-9.333,-0.008,0.007,-0.013
163705,1.432,-0.048,-9.323,-0.008,0.007,-0.013
163808,1.427,-0.041,-9.347,-0.008,0.007,-0.013
163911,1.429,-0.045,-9.347,-0.008,0.007,-0.013
164014,1.441,-0.036,-9.333,-0.008,0.007,-0.013
164117,1.432,-0.043,-9.345,-0.008,0.007,-0.013
164220,1.432,-0.053,-9.342,-0.008,0.007,-0.013
164323,1.439,-0.05,-9.34,-0.008,0.007,-0.013
164426,1.425,-0.055,-9.342,-0.008,0.007,-0.013
164529,1.425,-0.043,-9.325,-0.008,0.007,-0.013
164632,1.437,-0.043,-9.337,-0.008,0.007,-0.013
164735,1.429,-0.043,-9.345,-0.009,0.007,-0.013
164838,1.434,-0.048,-9.342,-0.008,0.007,-0.013
164941,1.425,-0.038,-9.342,-0.008,0.007,-0.013
165044,1.427,-0.048,-9.333,-0.008,0.007,-0.013
165147,1.434,-0.038,-9.337,-0.008,0.007,-0.013
165250,1.439,-0.048,-9.337,-0.009,0.007,-0.013
165353,1.415,-0.048,-9.328,-0.009,0.008,-0.013
165456,1.434,-0.045,-9.34,-0.008,0.007,-0.013
165559,1.429,-0.053,-9.347,-0.008,0.007,-0.013
165662,1.446,-0.045,-9.337,-0.008,0.007,-0.013
165765,1.425,-0.038,-9.342,-0.008,0.007,-0.013
165868,1.432,-0.048,-9.33,-0.008,0.007,-0.013
165971,1.434,-0.038,-9.337,-0.008,0.007,-0.013
166074,1.429,-0.045,-9.337,-0.008,0.007,-0.014
166177,1.425,-0.05,-9.34,-0.008,0.007,-0.013
166280,1.429,-0.041,-9.34,-0.008,0.007,-0.013
166383,1.432,-0.043,-9.333,-0.009,0.007,-0.013
166486,1.425,-0.05,-9.33,-0.009,0.007,-0.013
166589,1.432,-0.041,-9.34,-0.008,0.007,-0.013
166692,1.429,-0.043,-9.354,-0.008,0.007,-0.013
166795,1.425,-0.048,-9.333,-0.008,0.007,-0.013
166898,1.425,-0.045,-9.337,-0.008,0.007,-0.013
167001,1.425,-0.048,-9.349,-0.008,0.007,-0.013
167104,1.427,-0.038,-9.359,-0.008,0.007,-0.014
167207,1.429,-0.043,-9.342,-0.008,0.007,-0.013
167310,1.425,-0.045,-9.337,-0.008,0.007,-0.013
167413,1.432,-0.043,-9.337,-0.008,0.007,-0.014
167516,1.437,-0.043,-9.345,-0.008,0.007,-0.013
167619,1.427,-0.053,-9.337,-0.008,0.007,-0.013
167722,1.432,-0.045,-9.347,-0.008,0.007,-0.013
167825,1.427,-0.048,-9.34,-0.008,0.007,-0.013
167928,1.432,-0.038,-9.342,-0.009,0.007,-0.013
168031,1.434,-0.048,-9.34,-0.009,0.007,-0.013
168134,1.425,-0.043,-9.342,-0.008,0.007,-0.013
168237,1.434,-0.038,-9.34,-0.008,0.007,-0.013
168340,1.429,-0.045,-9.33,-0.008,0.007,-0.013
168443,1.415,-0.043,-9.34,-0.008,0.007,-0.013
168546,1.439,-0.034,-9.349,-0.009,0.007,-0.013
168649,1.425,-0.05,-9.345,-0.008,0.007,-0.013
168752,1.42,-0.043,-9.34,-0.009,0.007,-0.013
168855,1.434,-0.053,-9.345,-0.008,0.007,-0.013
168958,1.422,-0.05,-9.328,-0.008,0.007,-0.013
169061,1.439,-0.053,-9.337,-0.008,0.007,-0.014
169164,1.437,-0.055,-9.335,-0.009,0.007,-0.013
169267,1.432,-0.038,-9.335,-0.008,0.007,-0.013
169370,1.427,-0.048,-9.333,-0.008,0.007,-0.013
169473,1.427,-0.057,-9.345,-0.008,0.007,-0.013
169576,1.415,-0.048,-9.345,-0.008,0.007,-0.013
169679,1.439,-0.048,-9.352,-0.008,0.007,-0.013
169782,1.425,-0.043,-9.33,-0.008,0.006,-0.013
169885,1.434,-0.05,-9.325,-0.009,0.007,-0.013
169988,1.425,-0.036,-9.337,-0.009,0.007,-0.013
170091,1.427,-0.043,-9.328,-0.009,0.007,-0.013
170194,1.429,-0.041,-9.335,-0.008,0.007,-0.013
170297,1.439,-0.05,-9.345,-0.008,0.007,-0.013
170400,1.432,-0.048,-9.345,-0.009,0.007,-0.013
170503,1.437,-0.045,-9.328,-0.008,0.007,-0.014
170606,1.425,-0.048,-9.323,-0.009,0.007,-0.013
170709,1.427,-0.06,-9.337,-0.008,0.007,-0.013
170812,1.434,-0.045,-9.347,-0.008,0.007,-0.012
170915,1.434,-0.048,-9.33,-0.008,0.007,-0.012
171018,1.432,-0.048,-9.333,-0.008,0.007,-0.013
171121,1.425,-0.043,-9.347,-0.008,0.007,-0.013
171224,1.413,-0.05,-9.335,-0.009,0.007,-0.013
171327,1.427,-0.05,-9.34,-0.009,0.007,-0.013
171430,1.432,-0.05,-9.325,-0.008,0.007,-0.013
171533,1.42,-0.05,-9.34,-0.009,0.007,-0.013
171636,1.425,-0.041,-9.342,-0.008,0.007,-0.013
171739,1.427,-0.048,-9.333,-0.009,0.007,-0.013
171842,1.422,-0.036,-9.34,-0.009,0.007,-0.014
171945,1.434,-0.041,-9.349,-0.009,0.007,-0.013
172048,1.422,-0.043,-9.333,-0.008,0.007,-0.013
172151,1.429,-0.053,-9.337,-0.009,0.007,-0.013
172254,1.429,-0.036,-9.345,-0.008,0.007,-0.013
172357,1.437,-0.048,-9.323,-0.008,0.006,-0.013
172460,1.434,-0.045,-9.347,-0.009,0.007,-0.013
172563,1.429,-0.043,-9.33,-0.009,0.007,-0.013
172666,1.42,-0.045,-9.345,-0.008,0.007,-0.013
172769,1.429,-0.053,-9.337,-0.008,0.007,-0.014
172872,1.422,-0.045,-9.347,-0.008,0.007,-0.014
172975,1.427,-0.055,-9.349,-0.008,0.007,-0.013
173078,1.444,-0.038,-9.34,-0.008,0.007,-0.013
173181,1.42,-0.038,-9.34,-0.008,0.007,-0.013
173284,1.427,-0.05,-9.359,-0.009,0.007,-0.014
173387,1.427,-0.045,-9.34,-0.008,0.007,-0.013
173490,1.432,-0.041,-9.328,-0.008,0.007,-0.013
173593,1.434,-0.045,-9.347,-0.009,0.007,-0.013
173696,1.427,-0.043,-9.337,-0.008,0.007,-0.013
173799,1.42,-0.048,-9.337,-0.008,0.007,-0.013
173902,1.437,-0.043,-9.345,-0.008,0.007,-0.013
174005,1.427,-0.045,-9.33,-0.008,0.007,-0.013
174108,1.422,-0.043,-9.335,-0.008,0.007,-0.013
174211,1.434,-0.043,-9.352,-0.008,0.007,-0.013
174314,1.422,-0.045,-9.347,-0.008,0.007,-0.013
174417,1.441,-0.043,-9.328,-0.009,0.007,-0.013
174520,1.422,-0.048,-9.34,-0.008,0.007,-0.013
174623,1.437,-0.053,-9.335,-0.008,0.007,-0.013
174726,1.432,-0.041,-9.352,-0.008,0.007,-0.013
174829,1.434,-0.043,-9.335,-0.008,0.007,-0.013
174932,1.434,-0.036,-9.342,-0.008,0.007,-0.013
175035,1.434,-0.045,-9.347,-0.008,0.007,-0.013
175138,1.42,-0.048,-9.34,-0.009,0.007,-0.013
175241,1.444,-0.05,-9.345,-0.008,0.007,-0.013
175344,1.439,-0.041,-9.335,-0.008,0.007,-0.013
175447,1.434,-0.045,-9.323,-0.008,0.008,-0.013
175550,1.427,-0.053,-9.349,-0.008,0.007,-0.013
175653,1.429,-0.045,-9.342,-0.008,0.007,-0.013
175756,1.434,-0.048,-9.337,-0.008,0.007,-0.013
175859,1.427,-0.048,-9.357,-0.008,0.007,-0.013
175962,1.429,-0.045,-9.347,-0.008,0.007,-0.013
176065,1.427,-0.045,-9.349,-0.009,0.007,-0.013
176168,1.427,-0.045,-9.333,-0.008,0.007,-0.013
176271,1.434,-0.045,-9.349,-0.008,0.007,-0.013
176374,1.444,-0.041,-9.335,-0.008,0.007,-0.013
176477,1.425,-0.048,-9.333,-0.008,0.007,-0.013
176580,1.42,-0.041,-9.34,-0.008,0.007,-0.013
176683,1.425,-0.045,-9.347,-0.008,0.007,-0.013
176786,1.427,-0.043,-9.342,-0.008,0.007,-0.013
176889,1.432,-0.05,-9.347,-0.008,0.007,-0.013
176992,1.429,-0.05,-9.359,-0.008,0.007,-0.013
177095,1.425,-0.053,-9.333,-0.009,0.007,-0.013
177198,1.427,-0.041,-9.335,-0.008,0.007,-0.013
177301,1.432,-0.036,-9.357,-0.008,0.007,-0.013
177404,1.437,-0.048,-9.345,-0.008,0.007,-0.013
177507,1.441,-0.043,-9.328,-0.008,0.007,-0.013
177610,1.427,-0.05,-9.357,-0.009,0.007,-0.013
177713,1.425,-0.041,-9.335,-0.009,0.007,-0.013
177816,1.432,-0.034,-9.342,-0.008,0.007,-0.013
177919,1.425,-0.041,-9.342,-0.008,0.007,-0.013
178022,1.434,-0.038,-9.352,-0.008,0.007,-0.013
178125,1.434,-0.045,-9.337,-0.008,0.007,-0.013
178228,1.432,-0.053,-9.335,-0.009,0.007,-0.013
178331,1.439,-0.053,-9.347,-0.009,0.007,-0.013
178434,1.427,-0.043,-9.337,-0.008,0.007,-0.013
178537,1.422,-0.053,-9.335,-0.008,0.007,-0.013
178640,1.432,-0.043,-9.34,-0.008,0.007,-0.013
178743,1.427,-0.043,-9.333,-0.008,0.007,-0.013
178846,1.432,-0.055,-9.337,-0.008,0.007,-0.014
178949,1.434,-0.038,-9.34,-0.008,0.007,-0.013
179052,1.42,-0.048,-9.33,-0.008,0.007,-0.013
179155,1.427,-0.043,-9.347,-0.009,0.007,-0.014
179258,1.427,-0.045,-9.33,-0.008,0.007,-0.013
179361,1.415,-0.041,-9.333,-0.008,0.007,-0.013
179464,1.422,-0.041,-9.333,-0.009,0.007,-0.013
179567,1.425,-0.041,-9.342,-0.008,0.007,-0.013
179670,1.415,-0.048,-9.349,-0.008,0.007,-0.013
179773,1.437,-0.05,-9.349,-0.008,0.007,-0.013
179876,1.432,-0.048,-9.364,-0.009,0.007,-0.013
179979,1.437,-0.038,-9.345,-0.008,0.007,-0.013
180082,1.429,-0.038,-9.345,-0.008,0.008,-0.013
180185,1.425,-0.048,-9.335,-0.008,0.007,-0.013
180288,1.432,-0.038,-9.34,-0.009,0.007,-0.013
180391,1.434,-0.038,-9.352,-0.008,0.007,-0.013
180494,1.429,-0.038,-9.333,-0.008,0.007,-0.013
180597,1.427,-0.045,-9.337,-0.008,0.007,-0.013
180700,1.422,-0.057,-9.328,-0.008,0.007,-0.013
180803,1.427,-0.048,-9.333,-0.009,0.007,-0.013
180906,1.422,-0.05,-9.345,-0.008,0.007,-0.013
181009,1.429,-0.048,-9.335,-0.008,0.008,-0.013
181112,1.434,-0.043,-9.345,-0.008,0.008,-0.013
181215,1.425,-0.045,-9.337,-0.008,0.007,-0.013
181318,1.42,-0.05,-9.342,-0.009,0.007,-0.014
181421,1.439,-0.045,-9.337,-0.009,0.007,-0.013
181524,1.429,-0.048,-9.347,-0.008,0.007,-0.013
181627,1.425,-0.041,-9.347,-0.008,0.007,-0.014
181730,1.42,-0.043,-9.337,-0.008,0.007,-0.013
181833,1.425,-0.041,-9.333,-0.008,0.007,-0.013
181936,1.432,-0.038,-9.352,-0.008,0.007,-0.014
182039,1.425,-0.05,-9.345,-0.008,0.006,-0.013
182142,1.432,-0.036,-9.33,-0.008,0.007,-0.013
182245,1.429,-0.038,-9.333,-0.008,0.007,-0.013
182348,1.422,-0.05,-9.333,-0.009,0.007,-0.013
182451,1.425,-0.041,-9.335,-0.009,0.007,-0.013
182554,1.432,-0.043,-9.352,-0.008,0.007,-0.013
182657,1.429,-0.038,-9.337,-0.008,0.007,-0.013
182760,1.427,-0.048,-9.345,-0.008,0.007,-0.013
182863,1.427,-0.048,-9.359,-0.008,0.007,-0.013
182966,1.432,-0.038,-9.337,-0.008,0.007,-0.013
183069,1.422,-0.036,-9.342,-0.008,0.007,-0.013
183172,1.425,-0.05,-9.33,-0.008,0.007,-0.013
183275,1.425,-0.041,-9.342,-0.009,0.007,-0.013
183378,1.437,-0.036,-9.347,-0.008,0.007,-0.013
183481,1.434,-0.041,-9.318,-0.009,0.007,-0.013
183584,1.425,-0.043,-9.335,-0.008,0.007,-0.013
183687,1.427,-0.057,-9.34,-0.008,0.007,-0.013
183790,1.425,-0.053,-9.333,-0.008,0.007,-0.013
183893,1.429,-0.041,-9.335,-0.008,0.007,-0.013
183996,1.437,-0.045,-9.342,-0.008,0.007,-0.013
184099,1.429,-0.053,-9.34,-0.009,0.007,-0.013
184202,1.432,-0.036,-9.345,-0.007,0.007,-0.013
184305,1.437,-0.036,-9.345,-0.008,0.008,-0.013
184408,1.415,-0.041,-9.342,-0.008,0.007,-0.013
184511,1.432,-0.05,-9.34,-0.008,0.007,-0.013
184614,1.437,-0.043,-9.34,-0.008,0.007,-0.013
184717,1.434,-0.038,-9.345,-0.008,0.007,-0.013
184820,1.427,-0.045,-9.337,-0.008,0.007,-0.013
184923,1.432,-0.043,-9.34,-0.008,0.007,-0.013
185026,1.432,-0.043,-9.34,-0.008,0.007,-0.013
185129,1.429,-0.045,-9.345,-0.009,0.006,-0.013
185232,1.42,-0.048,-9.357,-0.008,0.007,-0.013
185335,1.432,-0.043,-9.349,-0.009,0.007,-0.013
185438,1.432,-0.045,-9.345,-0.008,0.007,-0.013
185541,1.42,-0.045,-9.33,-0.009,0.007,-0.014
185644,1.434,-0.045,-9.337,-0.008,0.008,-0.013
185747,1.439,-0.05,-9.34,-0.008,0.007,-0.013
185850,1.437,-0.05,-9.349,-0.009,0.007,-0.013
185953,1.425,-0.043,-9.347,-0.009,0.007,-0.013
186056,1.432,-0.048,-9.333,-0.009,0.007,-0.013
186159,1.432,-0.038,-9.342,-0.008,0.007,-0.013
186262,1.429,-0.048,-9.34,-0.008,0.007,-0.013
186365,1.429,-0.038,-9.337,-0.008,0.007,-0.013
186468,1.434,-0.045,-9.345,-0.009,0.007,-0.013
186571,1.429,-0.038,-9.342,-0.009,0.007,-0.013
186674,1.432,-0.045,-9.325,-0.008,0.007,-0.014
186777,1.437,-0.043,-9.337,-0.009,0.007,-0.013
186880,1.42,-0.045,-9.342,-0.008,0.007,-0.013
186983,1.429,-0.034,-9.34,-0.008,0.008,-0.013
187086,1.429,-0.045,-9.33,-0.009,0.007,-0.013
187189,1.413,-0.055,-9.364,-0.009,0.007,-0.013
187292,1.429,-0.055,-9.333,-0.008,0.007,-0.013
187395,1.429,-0.038,-9.333,-0.008,0.007,-0.013
187498,1.427,-0.053,-9.342,-0.008,0.007,-0.013
187601,1.427,-0.053,-9.337,-0.008,0.007,-0.014
187704,1.427,-0.041,-9.333,-0.008,0.007,-0.013
187807,1.434,-0.038,-9.342,-0.008,0.007,-0.013
187910,1.439,-0.045,-9.354,-0.008,0.007,-0.014
188013,1.429,-0.036,-9.335,-0.008,0.007,-0.013
188116,1.427,-0.05,-9.342,-0.009,0.007,-0.013
188219,1.437,-0.05,-9.357,-0.008,0.007,-0.013
188322,1.422,-0.048,-9.347,-0.009,0.007,-0.013
188425,1.425,-0.045,-9.345,-0.008,0.007,-0.013
188528,1.441,-0.053,-9.34,-0.009,0.007,-0.013
188631,1.427,-0.041,-9.347,-0.009,0.008,-0.013
188734,1.434,-0.05,-9.337,-0.009,0.007,-0.013
188837,1.425,-0.041,-9.34,-0.009,0.007,-0.013
188940,1.427,-0.043,-9.333,-0.009,0.007,-0.014
189043,1.427,-0.041,-9.333,-0.008,0.007,-0.013
189146,1.417,-0.048,-9.34,-0.008,0.007,-0.013
189249,1.427,-0.048,-9.323,-0.008,0.007,-0.013
189352,1.422,-0.048,-9.34,-0.009,0.007,-0.013
189455,1.42,-0.048,-9.335,-0.008,0.007,-0.013
189558,1.432,-0.053,-9.337,-0.009,0.007,-0.013
189661,1.429,-0.048,-9.354,-0.008,0.007,-0.013
189764,1.427,-0.048,-9.359,-0.008,0.007,-0.013
189867,1.422,-0.05,-9.345,-0.009,0.007,-0.013
189970,1.425,-0.05,-9.328,-0.008,0.007,-0.013
190073,1.432,-0.053,-9.347,-0.009,0.007,-0.013
190176,1.429,-0.045,-9.349,-0.009,0.007,-0.013
190279,1.422,-0.045,-9.349,-0.008,0.007,-0.013
190382,1.425,-0.048,-9.359,-0.008,0.007,-0.013
190485,1.427,-0.053,-9.33,-0.008,0.007,-0.013
190588,1.434,-0.055,-9.328,-0.008,0.007,-0.013
190691,1.432,-0.041,-9.33,-0.008,0.007,-0.013
190794,1.425,-0.05,-9.342,-0.009,0.007,-0.013
190897,1.422,-0.031,-9.335,-0.008,0.007,-0.013
191000,1.434,-0.043,-9.337,-0.008,0.007,-0.013
191103,1.432,-0.045,-9.33,-0.008,0.007,-0.013
191206,1.437,-0.045,-9.34,-0.008,0.007,-0.013
191309,1.425,-0.045,-9.345,-0.008,0.007,-0.012
191412,1.429,-0.034,-9.352,-0.009,0.007,-0.013
191515,1.434,-0.036,-9.347,-0.009,0.007,-0.013
191618,1.429,-0.038,-9.347,-0.008,0.007,-0.013
191721,1.437,-0.038,-9.34,-0.009,0.007,-0.013
191824,1.446,-0.048,-9.347,-0.008,0.007,-0.013
191927,1.437,-0.053,-9.34,-0.009,0.007,-0.013
192030,1.434,-0.048,-9.337,-0.009,0.007,-0.013
192133,1.437,-0.048,-9.335,-0.008,0.007,-0.013
192236,1.415,-0.041,-9.342,-0.008,0.007,-0.013
192339,1.432,-0.048,-9.345,-0.009,0.007,-0.014
192442,1.429,-0.043,-9.325,-0.009,0.007,-0.013
192545,1.425,-0.048,-9.354,-0.008,0.007,-0.013
192648,1.441,-0.041,-9.349,-0.008,0.007,-0.013
192751,1.432,-0.05,-9.349,-0.008,0.007,-0.013
192854,1.42,-0.048,-9.342,-0.008,0.007,-0.013
192957,1.432,-0.043,-9.342,-0.008,0.007,-0.013
193060,1.432,-0.045,-9.337,-0.008,0.007,-0.013
193163,1.427,-0.041,-9.345,-0.008,0.007,-0.013
193266,1.437,-0.045,-9.352,-0.009,0.007,-0.013
193369,1.425,-0.036,-9.337,-0.009,0.007,-0.013
193472,1.434,-0.045,-9.357,-0.009,0.007,-0.013
193575,1.429,-0.029,-9.345,-0.008,0.007,-0.013
193678,1.417,-0.041,-9.333,-0.008,0.007,-0.013
193781,1.432,-0.055,-9.349,-0.008,0.007,-0.013
193884,1.432,-0.041,-9.361,-0.008,0.007,-0.013
193987,1.42,-0.034,-9.347,-0.008,0.007,-0.013
194090,1.437,-0.045,-9.342,-0.009,0.007,-0.013
194193,1.427,-0.045,-9.325,-0.009,0.007,-0.013
194296,1.432,-0.038,-9.33,-0.008,0.007,-0.013
194399,1.437,-0.05,-9.347,-0.008,0.007,-0.013
194502,1.434,-0.057,-9.333,-0.008,0.007,-0.013
194605,1.429,-0.048,-9.342,-0.008,0.007,-0.013
194708,1.441,-0.045,-9.349,-0.008,0.007,-0.013
194811,1.432,-0.045,-9.342,-0.009,0.007,-0.013
194914,1.434,-0.045,-9.333,-0.008,0.007,-0.013
195017,1.427,-0.041,-9.345,-0.008,0.007,-0.013
195120,1.427,-0.05,-9.345,-0.008,0.007,-0.013
195223,1.444,-0.043,-9.347,-0.008,0.007,-0.013
195326,1.415,-0.045,-9.342,-0.008,0.007,-0.013
195429,1.432,-0.043,-9.335,-0.008,0.007,-0.013
195532,1.432,-0.043,-9.347,-0.008,0.007,-0.013
195635,1.441,-0.045,-9.34,-0.008,0.007,-0.013
195738,1.441,-0.038,-9.345,-0.008,0.007,-0.013
195841,1.437,-0.045,-9.333,-0.008,0.007,-0.014
195944,1.432,-0.043,-9.347,-0.008,0.007,-0.013
196047,1.432,-0.038,-9.34,-0.008,0.007,-0.013
196150,1.432,-0.041,-9.335,-0.008,0.007,-0.014
196253,1.434,-0.031,-9.347,-0.008,0.007,-0.013
196356,1.444,-0.036,-9.328,-0.008,0.007,-0.013
196459,1.422,-0.038,-9.337,-0.008,0.007,-0.014
196562,1.437,-0.045,-9.347,-0.008,0.007,-0.013
196665,1.425,-0.038,-9.335,-0.008,0.007,-0.013
196768,1.427,-0.053,-9.352,-0.008,0.008,-0.013
196871,1.429,-0.048,-9.34,-0.008,0.007,-0.013
196974,1.425,-0.038,-9.345,-0.009,0.007,-0.013
197077,1.434,-0.05,-9.335,-0.009,0.007,-0.013
197180,1.439,-0.043,-9.34,-0.008,0.007,-0.013
197283,1.427,-0.045,-9.335,-0.009,0.007,-0.013
197386,1.432,-0.041,-9.325,-0.009,0.007,-0.013
197489,1.439,-0.05,-9.345,-0.008,0.007,-0.013
197592,1.432,-0.045,-9.337,-0.008,0.007,-0.013
197695,1.441,-0.041,-9.335,-0.008,0.007,-0.013
197798,1.422,-0.045,-9.333,-0.008,0.007,-0.013
197901,1.429,-0.043,-9.347,-0.009,0.007,-0.013
198004,1.439,-0.041,-9.357,-0.008,0.007,-0.013
198107,1.422,-0.057,-9.345,-0.008,0.007,-0.013
198210,1.434,-0.053,-9.342,-0.009,0.007,-0.013
198313,1.439,-0.053,-9.347,-0.008,0.007,-0.013
198416,1.42,-0.05,-9.34,-0.008,0.007,-0.014
198519,1.434,-0.05,-9.33,-0.009,0.007,-0.013
198622,1.429,-0.038,-9.345,-0.008,0.007,-0.013
198725,1.425,-0.043,-9.335,-0.008,0.007,-0.013
198828,1.437,-0.038,-9.335,-0.008,0.007,-0.013
198931,1.432,-0.034,-9.342,-0.007,0.007,-0.013
199034,1.432,-0.045,-9.34,-0.008,0.007,-0.013
199137,1.444,-0.045,-9.337,-0.009,0.007,-0.013
199240,1.432,-0.048,-9.333,-0.008,0.007,-0.013
199343,1.429,-0.055,-9.335,-0.008,0.007,-0.013
199446,1.425,-0.055,-9.347,-0.008,0.007,-0.013
199549,1.437,-0.036,-9.33,-0.008,0.007,-0.013
199652,1.429,-0.048,-9.342,-0.008,0.007,-0.013
199755,1.432,-0.055,-9.316,-0.008,0.007,-0.013
199858,1.415,-0.045,-9.325,-0.008,0.007,-0.013
199961,1.437,-0.041,-9.335,-0.009,0.007,-0.013
200064,1.422,-0.048,-9.333,-0.009,0.007,-0.013
200167,1.434,-0.043,-9.34,-0.009,0.007,-0.013
200270,1.429,-0.053,-9.349,-0.008,0.007,-0.014
200373,1.429,-0.043,-9.347,-0.008,0.007,-0.013
200476,1.446,-0.048,-9.323,-0.008,0.007,-0.013
200579,1.434,-0.041,-9.349,-0.008,0.007,-0.013
200682,1.425,-0.043,-9.347,-0.009,0.007,-0.013
200785,1.422,-0.036,-9.369,-0.008,0.007,-0.013
200888,1.425,-0.036,-9.33,-0.009,0.007,-0.013
200991,1.434,-0.043,-9.347,-0.008,0.007,-0.014
201094,1.439,-0.053,-9.359,-0.008,0.007,-0.013
201197,1.425,-0.038,-9.359,-0.008,0.007,-0.013
201300,1.432,-0.043,-9.342,-0.008,0.007,-0.013
201403,1.429,-0.05,-9.335,-0.008,0.007,-0.013
201506,1.434,-0.045,-9.335,-0.008,0.007,-0.013
201609,1.432,-0.043,-9.342,-0.009,0.007,-0.013
201712,1.42,-0.041,-9.337,-0.008,0.007,-0.013
201815,1.429,-0.05,-9.337,-0.008,0.007,-0.013
201918,1.437,-0.045,-9.347,-0.009,0.007,-0.013
202021,1.425,-0.041,-9.328,-0.008,0.007,-0.013
202124,1.427,-0.048,-9.335,-0.009,0.007,-0.013
202227,1.429,-0.055,-9.342,-0.008,0.007,-0.013
202330,1.417,-0.045,-9.33,-0.008,0.007,-0.013
202433,1.437,-0.041,-9.333,-0.008,0.007,-0.013
202536,1.42,-0.05,-9.345,-0.009,0.007,-0.013
202639,1.425,-0.05,-9.342,-0.008,0.007,-0.013
202742,1.439,-0.055,-9.328,-0.008,0.006,-0.013
202845,1.415,-0.045,-9.345,-0.009,0.007,-0.013
202948,1.427,-0.038,-9.342,-0.008,0.007,-0.013
203051,1.434,-0.041,-9.345,-0.008,0.007,-0.013
203154,1.42,-0.036,-9.337,-0.008,0.007,-0.013
203257,1.434,-0.045,-9.345,-0.008,0.007,-0.014
203360,1.429,-0.036,-9.333,-0.008,0.007,-0.013
203463,1.422,-0.034,-9.342,-0.008,0.007,-0.013
203566,1.42,-0.041,-9.335,-0.008,0.007,-0.013
203669,1.437,-0.053,-9.347,-0.008,0.007,-0.013
203772,1.422,-0.05,-9.345,-0.008,0.007,-0.013
203875,1.432,-0.043,-9.325,-0.009,0.007,-0.013
203978,1.422,-0.048,-9.349,-0.008,0.007,-0.013
204081,1.434,-0.05,-9.342,-0.008,0.007,-0.013
204184,1.439,-0.048,-9.34,-0.008,0.007,-0.013
204287,1.434,-0.045,-9.323,-0.009,0.007,-0.013
204390,1.429,-0.048,-9.333,-0.008,0.007,-0.013
204493,1.427,-0.041,-9.342,-0.008,0.007,-0.013
204596,1.429,-0.048,-9.349,-0.008,0.007,-0.013
204699,1.429,-0.043,-9.347,-0.008,0.007,-0.013
204802,1.437,-0.041,-9.333,-0.009,0.007,-0.013
204905,1.422,-0.041,-9.33,-0.009,0.007,-0.013
205008,1.432,-0.05,-9.347,-0.008,0.007,-0.013
205111,1.425,-0.048,-9.333,-0.009,0.007,-0.013
205214,1.432,-0.055,-9.347,-0.008,0.007,-0.013
205317,1.427,-0.045,-9.347,-0.008,0.007,-0.013
205420,1.432,-0.048,-9.347,-0.008,0.007,-0.013
205523,1.432,-0.041,-9.333,-0.008,0.007,-0.013
205626,1.434,-0.041,-9.349,-0.008,0.007,-0.013
205729,1.422,-0.048,-9.328,-0.008,0.007,-0.014
205832,1.427,-0.041,-9.342,-0.009,0.008,-0.013
205935,1.432,-0.05,-9.349,-0.008,0.007,-0.013
206038,1.432,-0.048,-9.328,-0.008,0.007,-0.013
206141,1.432,-0.045,-9.342,-0.008,0.007,-0.013
206244,1.427,-0.041,-9.345,-0.008,0.007,-0.013
206347,1.429,-0.043,-9.342,-0.008,0.007,-0.014
206450,1.432,-0.041,-9.328,-0.008,0.007,-0.013
206553,1.427,-0.045,-9.335,-0.008,0.007,-0.013
206656,1.429,-0.043,-9.345,-0.009,0.007,-0.013
206759,1.432,-0.043,-9.337,-0.008,0.007,-0.013
206862,1.429,-0.045,-9.354,-0.009,0.007,-0.013
206965,1.434,-0.045,-9.349,-0.009,0.007,-0.013
207068,1.42,-0.043,-9.34,-0.009,0.007,-0.013
207171,1.422,-0.043,-9.33,-0.008,0.007,-0.013
207274,1.439,-0.048,-9.345,-0.008,0.007,-0.013
207377,1.429,-0.034,-9.354,-0.008,0.007,-0.013
207480,1.429,-0.038,-9.337,-0.008,0.007,-0.014
207583,1.427,-0.038,-9.342,-0.008,0.007,-0.013
207686,1.429,-0.05,-9.333,-0.008,0.007,-0.013
207789,1.432,-0.043,-9.34,-0.008,0.007,-0.013
207892,1.437,-0.048,-9.34,-0.008,0.007,-0.013
207995,1.427,-0.045,-9.335,-0.009,0.007,-0.013
208098,1.437,-0.045,-9.345,-0.008,0.007,-0.013
208201,1.427,-0.048,-9.349,-0.008,0.007,-0.013
208304,1.429,-0.041,-9.34,-0.009,0.007,-0.013
208407,1.441,-0.048,-9.335,-0.008,0.007,-0.013
208510,1.425,-0.041,-9.335,-0.008,0.007,-0.013
208613,1.437,-0.029,-9.359,-0.008,0.007,-0.013
208716,1.437,-0.041,-9.337,-0.008,0.006,-0.013
208819,1.437,-0.048,-9.345,-0.009,0.007,-0.013
208922,1.429,-0.043,-9.33,-0.008,0.007,-0.013
209025,1.439,-0.045,-9.352,-0.008,0.007,-0.013
209128,1.42,-0.05,-9.34,-0.009,0.007,-0.013
209231,1.434,-0.041,-9.361,-0.008,0.007,-0.013
209334,1.429,-0.045,-9.335,-0.009,0.007,-0.013
209437,1.437,-0.045,-9.359,-0.009,0.007,-0.013
209540,1.434,-0.038,-9.337,-0.008,0.007,-0.013
209643,1.429,-0.041,-9.335,-0.008,0.007,-0.013
209746,1.444,-0.05,-9.321,-0.009,0.007,-0.013
209849,1.437,-0.043,-9.321,-0.008,0.007,-0.013
209952,1.429,-0.048,-9.335,-0.008,0.007,-0.013
210055,1.437,-0.041,-9.34,-0.008,0.007,-0.014
210158,1.429,-0.053,-9.335,-0.009,0.007,-0.013
210261,1.427,-0.05,-9.33,-0.008,0.007,-0.013
210364,1.432,-0.043,-9.352,-0.008,0.007,-0.013
210467,1.42,-0.048,-9.352,-0.008,0.007,-0.013
210570,1.432,-0.043,-9.349,-0.009,0.007,-0.013
210673,1.432,-0.048,-9.33,-0.008,0.007,-0.013
210776,1.427,-0.045,-9.342,-0.009,0.007,-0.013
210879,1.432,-0.043,-9.34,-0.008,0.007,-0.013
210982,1.422,-0.041,-9.323,-0.008,0.007,-0.013
211085,1.683,-0.062,-9.323,0.009,0.269,-0.007
211188,1.762,-0.067,-9.287,-0.007,0.022,-0.013
211291,1.757,-0.06,-9.301,-0.008,0.008,-0.013
211394,1.76,-0.06,-9.28,-0.008,0.007,-0.013
211497,1.765,-0.074,-9.287,-0.008,0.007,-0.013
211600,1.75,-0.065,-9.285,-0.008,0.007,-0.013
211703,1.765,-0.065,-9.285,-0.008,0.007,-0.014
211806,1.757,-0.074,-9.287,-0.008,0.007,-0.013
211909,1.753,-0.072,-9.282,-0.008,0.007,-0.013
212012,1.755,-0.053,-9.297,-0.008,0.007,-0.014
212115,1.76,-0.065,-9.29,-0.009,0.007,-0.013
212218,1.769,-0.067,-9.297,-0.008,0.007,-0.014
212321,1.757,-0.072,-9.27,-0.008,0.007,-0.013
212424,1.762,-0.05,-9.275,-0.008,0.007,-0.013
212527,1.762,-0.067,-9.275,-0.008,0.007,-0.013
212630,1.753,-0.069,-9.285,-0.008,0.007,-0.013
212733,1.76,-0.069,-9.275,-0.009,0.007,-0.014
212836,1.757,-0.069,-9.29,-0.009,0.007,-0.013
212939,1.755,-0.067,-9.287,-0.008,0.007,-0.013
213042,1.753,-0.069,-9.27,-0.008,0.007,-0.013
213145,1.755,-0.065,-9.275,-0.008,0.007,-0.013
213248,1.75,-0.077,-9.28,-0.008,0.007,-0.013
213351,1.743,-0.06,-9.261,-0.009,0.007,-0.014
213454,1.762,-0.072,-9.28,-0.008,0.007,-0.013
213557,1.76,-0.067,-9.294,-0.008,0.007,-0.014
213660,1.757,-0.072,-9.297,-0.008,0.007,-0.014
213763,1.757,-0.067,-9.287,-0.008,0.007,-0.013
213866,1.753,-0.069,-9.275,-0.009,0.007,-0.013
213969,1.767,-0.074,-9.278,-0.008,0.007,-0.014
214072,1.765,-0.074,-9.282,-0.008,0.007,-0.013
214175,1.748,-0.074,-9.285,-0.008,0.007,-0.013
214278,1.76,-0.065,-9.278,-0.008,0.007,-0.013
214381,1.767,-0.067,-9.273,-0.008,0.007,-0.013
214484,1.765,-0.069,-9.299,-0.009,0.007,-0.013
214587,1.762,-0.065,-9.275,-0.009,0.007,-0.013
214690,1.753,-0.069,-9.282,-0.008,0.007,-0.013
214793,1.767,-0.072,-9.28,-0.009,0.007,-0.014
214896,1.76,-0.072,-9.285,-0.008,0.007,-0.013
214999,1.755,-0.062,-9.268,-0.008,0.007,-0.013
215102,1.75,-0.065,-9.292,-0.008,0.007,-0.013
215205,1.765,-0.06,-9.282,-0.008,0.007,-0.013
215308,1.76,-0.062,-9.29,-0.008,0.007,-0.013
215411,1.76,-0.067,-9.29,-0.008,0.007,-0.013
215514,1.757,-0.062,-9.292,-0.008,0.007,-0.013
215617,1.757,-0.067,-9.28,-0.008,0.007,-0.013
215720,1.757,-0.06,-9.28,-0.008,0.007,-0.013
215823,1.755,-0.069,-9.275,-0.009,0.007,-0.013
215926,1.755,-0.065,-9.263,-0.009,0.007,-0.013
216029,1.75,-0.069,-9.278,-0.009,0.007,-0.013
216132,1.76,-0.069,-9.273,-0.008,0.007,-0.013
216235,1.755,-0.072,-9.28,-0.008,0.007,-0.013
216338,1.76,-0.065,-9.287,-0.009,0.007,-0.013
216441,1.762,-0.074,-9.278,-0.008,0.007,-0.014
216544,1.767,-0.069,-9.294,-0.008,0.007,-0.013
216647,1.75,-0.074,-9.278,-0.008,0.007,-0.013
216750,1.769,-0.062,-9.301,-0.009,0.007,-0.013
216853,1.755,-0.069,-9.282,-0.008,0.007,-0.013
216956,1.755,-0.065,-9.278,-0.008,0.007,-0.013
217059,1.753,-0.072,-9.292,-0.008,0.007,-0.014
217162,1.755,-0.069,-9.275,-0.009,0.007,-0.013
217265,1.762,-0.065,-9.278,-0.008,0.007,-0.013
217368,1.76,-0.055,-9.282,-0.008,0.007,-0.013
217471,1.753,-0.086,-9.266,-0.008,0.007,-0.013
217574,1.76,-0.062,-9.285,-0.008,0.007,-0.013
217677,1.755,-0.074,-9.278,-0.008,0.007,-0.013
217780,1.762,-0.069,-9.266,-0.008,0.007,-0.014
217883,1.757,-0.062,-9.27,-0.008,0.007,-0.013
217986,1.757,-0.062,-9.285,-0.008,0.007,-0.013
218089,1.76,-0.067,-9.282,-0.008,0.007,-0.013
218192,1.762,-0.06,-9.27,-0.008,0.007,-0.013
218295,1.762,-0.065,-9.282,-0.008,0.007,-0.013
218398,1.767,-0.072,-9.28,-0.008,0.007,-0.013
218501,1.765,-0.067,-9.282,-0.008,0.007,-0.013
218604,1.769,-0.074,-9.263,-0.008,0.007,-0.014
218707,1.76,-0.062,-9.273,-0.009,0.007,-0.014
218810,1.762,-0.069,-9.278,-0.008,0.007,-0.013
218913,1.755,-0.074,-9.285,-0.008,0.007,-0.014
219016,1.757,-0.074,-9.28,-0.008,0.007,-0.014
219119,1.757,-0.067,-9.278,-0.008,0.007,-0.013
219222,1.753,-0.072,-9.287,-0.008,0.007,-0.013
219325,1.76,-0.074,-9.275,-0.008,0.007,-0.013
219428,1.757,-0.072,-9.29,-0.009,0.007,-0.014
219531,1.76,-0.072,-9.273,-0.009,0.007,-0.013
219634,1.762,-0.069,-9.28,-0.008,0.007,-0.013
219737,1.753,-0.065,-9.29,-0.008,0.007,-0.013
219840,1.765,-0.069,-9.273,-0.009,0.007,-0.013
219943,1.765,-0.067,-9.27,-0.008,0.007,-0.013
220046,1.75,-0.067,-9.275,-0.009,0.007,-0.013
220149,1.757,-0.067,-9.287,-0.008,0.007,-0.013
220252,1.755,-0.065,-9.285,-0.008,0.007,-0.014
220355,1.76,-0.065,-9.282,-0.008,0.007,-0.014
220458,1.757,-0.074,-9.287,-0.008,0.007,-0.013
220561,1.76,-0.067,-9.282,-0.008,0.007,-0.013
220664,1.769,-0.077,-9.28,-0.009,0.007,-0.013
220767,1.765,-0.06,-9.273,-0.008,0.007,-0.013
220870,1.755,-0.069,-9.28,-0.008,0.007,-0.013
220973,1.76,-0.074,-9.287,-0.008,0.007,-0.013
221076,1.762,-0.079,-9.29,-0.008,0.007,-0.013
221179,1.762,-0.074,-9.282,-0.009,0.007,-0.013
221282,1.755,-0.079,-9.287,-0.008,0.007,-0.013
221385,1.76,-0.077,-9.28,-0.008,0.007,-0.013
221488,1.753,-0.069,-9.28,-0.009,0.007,-0.013
221591,1.757,-0.067,-9.278,-0.008,0.007,-0.013
221694,1.753,-0.077,-9.275,-0.008,0.007,-0.013
221797,1.76,-0.067,-9.285,-0.008,0.007,-0.013
221900,1.765,-0.065,-9.268,-0.008,0.007,-0.013
222003,1.765,-0.065,-9.27,-0.009,0.008,-0.013
222106,1.762,-0.062,-9.294,-0.009,0.007,-0.013
222209,1.755,-0.072,-9.278,-0.008,0.007,-0.013
222312,1.757,-0.069,-9.28,-0.008,0.007,-0.013
222415,1.767,-0.074,-9.285,-0.008,0.007,-0.013
222518,1.755,-0.067,-9.266,-0.008,0.007,-0.013
222621,1.76,-0.069,-9.29,-0.008,0.007,-0.014
222724,1.757,-0.067,-9.282,-0.008,0.007,-0.013
222827,1.762,-0.072,-9.282,-0.008,0.007,-0.013
222930,1.753,-0.077,-9.278,-0.009,0.007,-0.014
223033,1.75,-0.074,-9.282,-0.008,0.007,-0.014
223136,1.75,-0.065,-9.28,-0.008,0.007,-0.014
223239,1.762,-0.062,-9.285,-0.008,0.007,-0.013
223342,1.762,-0.065,-9.287,-0.008,0.007,-0.013
223445,1.765,-0.074,-9.273,-0.008,0.007,-0.013
223548,1.765,-0.069,-9.29,-0.008,0.007,-0.014
223651,1.76,-0.077,-9.275,-0.008,0.007,-0.013
223754,1.757,-0.067,-9.278,-0.008,0.007,-0.013
223857,1.75,-0.069,-9.275,-0.008,0.007,-0.013
223960,1.755,-0.067,-9.273,-0.009,0.007,-0.013
224063,1.765,-0.072,-9.292,-0.008,0.007,-0.013
224166,1.762,-0.077,-9.292,-0.009,0.007,-0.013
224269,1.76,-0.069,-9.282,-0.008,0.007,-0.013
224372,1.762,-0.062,-9.28,-0.008,0.007,-0.014
224475,1.753,-0.074,-9.28,-0.008,0.007,-0.013
224578,1.762,-0.074,-9.275,-0.008,0.007,-0.013
224681,1.76,-0.074,-9.287,-0.009,0.007,-0.013
224784,1.753,-0.069,-9.266,-0.008,0.007,-0.013
224887,1.765,-0.077,-9.285,-0.008,0.007,-0.013
224990,1.767,-0.067,-9.273,-0.008,0.007,-0.013
225093,1.762,-0.067,-9.278,-0.008,0.007,-0.014
225196,1.767,-0.065,-9.285,-0.008,0.007,-0.013
225299,1.76,-0.067,-9.27,-0.008,0.007,-0.013
225402,1.753,-0.072,-9.285,-0.008,0.007,-0.013
225505,1.772,-0.062,-9.278,-0.009,0.007,-0.013
225608,1.745,-0.062,-9.275,-0.009,0.007,-0.013
225711,1.765,-0.06,-9.282,-0.008,0.007,-0.013
225814,1.765,-0.069,-9.285,-0.008,0.007,-0.013
225917,1.755,-0.062,-9.28,-0.009,0.007,-0.013
226020,1.76,-0.069,-9.287,-0.008,0.007,-0.013
226123,1.757,-0.072,-9.278,-0.008,0.007,-0.013
226226,1.757,-0.067,-9.287,-0.008,0.007,-0.013
226329,1.769,-0.072,-9.285,-0.008,0.007,-0.013
226432,1.75,-0.067,-9.266,-0.009,0.007,-0.013
226535,1.762,-0.072,-9.282,-0.008,0.007,-0.013
226638,1.765,-0.067,-9.282,-0.008,0.007,-0.013
226741,1.753,-0.069,-9.275,-0.008,0.007,-0.013
226844,1.765,-0.062,-9.287,-0.008,0.007,-0.013
226947,1.765,-0.057,-9.28,-0.008,0.007,-0.013
227050,1.755,-0.062,-9.29,-0.008,0.007,-0.013
227153,1.755,-0.079,-9.282,-0.008,0.007,-0.013
227256,1.755,-0.06,-9.285,-0.008,0.007,-0.013
227359,1.767,-0.072,-9.282,-0.008,0.007,-0.013
227462,1.765,-0.072,-9.28,-0.008,0.007,-0.013
227565,1.76,-0.069,-9.278,-0.008,0.007,-0.013
227668,1.755,-0.072,-9.275,-0.008,0.007,-0.013
227771,1.762,-0.072,-9.28,-0.009,0.007,-0.013
227874,1.755,-0.072,-9.273,-0.009,0.007,-0.013
227977,1.767,-0.074,-9.292,-0.009,0.007,-0.013
228080,1.753,-0.062,-9.282,-0.008,0.007,-0.013
228183,1.76,-0.074,-9.268,-0.008,0.007,-0.013
228286,1.774,-0.069,-9.28,-0.008,0.007,-0.013
228389,1.75,-0.069,-9.273,-0.008,0.007,-0.013
228492,1.762,-0.072,-9.28,-0.008,0.007,-0.013
228595,1.76,-0.077,-9.29,-0.008,0.007,-0.013
228698,1.748,-0.067,-9.263,-0.008,0.007,-0.013
228801,1.755,-0.074,-9.278,-0.009,0.007,-0.013
228904,1.76,-0.069,-9.29,-0.009,0.007,-0.013
229007,1.753,-0.067,-9.287,-0.008,0.007,-0.013
229110,1.776,-0.074,-9.294,-0.008,0.007,-0.013
229213,1.757,-0.072,-9.285,-0.008,0.007,-0.013
229316,1.755,-0.065,-9.285,-0.009,0.007,-0.013
229419,1.755,-0.067,-9.287,-0.008,0.007,-0.013
229522,1.762,-0.067,-9.275,-0.008,0.007,-0.013
229625,1.76,-0.072,-9.268,-0.009,0.007,-0.014
229728,1.774,-0.065,-9.278,-0.008,0.007,-0.013
229831,1.753,-0.079,-9.287,-0.008,0.007,-0.013
229934,1.762,-0.077,-9.282,-0.009,0.007,-0.013
230037,1.762,-0.069,-9.275,-0.008,0.007,-0.013
230140,1.753,-0.06,-9.285,-0.008,0.007,-0.013
230243,1.757,-0.074,-9.287,-0.008,0.007,-0.013
230346,1.76,-0.074,-9.27,-0.008,0.007,-0.013
230449,1.765,-0.072,-9.29,-0.008,0.007,-0.013
230552,1.774,-0.077,-9.28,-0.008,0.007,-0.013
230655,1.748,-0.069,-9.268,-0.008,0.007,-0.013
230758,1.772,-0.072,-9.282,-0.008,0.007,-0.013
230861,1.76,-0.062,-9.275,-0.008,0.007,-0.013
230964,1.755,-0.069,-9.266,-0.008,0.007,-0.013
231067,1.757,-0.074,-9.282,-0.008,0.007,-0.013
231170,1.755,-0.065,-9.282,-0.008,0.007,-0.013
231273,1.76,-0.069,-9.28,-0.008,0.007,-0.014
231376,1.76,-0.069,-9.285,-0.008,0.007,-0.013
231479,1.755,-0.06,-9.28,-0.008,0.007,-0.013
231582,1.757,-0.065,-9.28,-0.008,0.007,-0.013
231685,1.755,-0.067,-9.29,-0.008,0.008,-0.013
231788,1.755,-0.057,-9.273,-0.008,0.007,-0.013
231891,1.755,-0.072,-9.285,-0.007,0.007,-0.013
231994,1.76,-0.069,-9.275,-0.008,0.007,-0.013
232097,1.762,-0.069,-9.27,-0.008,0.007,-0.013
232200,1.76,-0.065,-9.275,-0.008,0.007,-0.013
232303,1.748,-0.081,-9.285,-0.008,0.007,-0.013
232406,1.762,-0.069,-9.266,-0.008,0.007,-0.014
232509,1.757,-0.074,-9.28,-0.008,0.007,-0.013
232612,1.762,-0.086,-9.282,-0.008,0.007,-0.013
232715,1.755,-0.072,-9.28,-0.008,0.007,-0.014
232818,1.762,-0.065,-9.285,-0.008,0.007,-0.013
232921,1.755,-0.067,-9.287,-0.008,0.007,-0.013
233024,1.774,-0.069,-9.29,-0.009,0.007,-0.013
233127,1.76,-0.069,-9.268,-0.008,0.007,-0.013
233230,1.757,-0.067,-9.285,-0.008,0.007,-0.013
233333,1.769,-0.067,-9.275,-0.008,0.007,-0.013
233436,1.757,-0.081,-9.28,-0.008,0.007,-0.013
233539,1.765,-0.065,-9.27,-0.008,0.007,-0.013
233642,1.762,-0.06,-9.268,-0.008,0.007,-0.013
233745,1.755,-0.069,-9.261,-0.008,0.007,-0.013
233848,1.755,-0.072,-9.28,-0.008,0.007,-0.013
233951,1.762,-0.072,-9.266,-0.008,0.007,-0.012
234054,1.75,-0.069,-9.268,-0.008,0.007,-0.013
234157,1.769,-0.067,-9.304,-0.008,0.007,-0.013
234260,1.757,-0.072,-9.29,-0.008,0.007,-0.013
234363,1.748,-0.062,-9.273,-0.008,0.007,-0.013
234466,1.757,-0.072,-9.268,-0.008,0.007,-0.013
234569,1.753,-0.06,-9.28,-0.008,0.007,-0.013
234672,1.772,-0.055,-9.28,-0.008,0.007,-0.013
234775,1.76,-0.065,-9.278,-0.008,0.007,-0.013
234878,1.757,-0.077,-9.278,-0.008,0.007,-0.013
234981,1.762,-0.069,-9.282,-0.009,0.007,-0.014
235084,1.762,-0.062,-9.263,-0.009,0.008,-0.013
235187,1.767,-0.06,-9.278,-0.008,0.007,-0.013
235290,1.757,-0.072,-9.275,-0.008,0.007,-0.013
235393,1.762,-0.072,-9.282,-0.008,0.007,-0.013
235496,1.76,-0.074,-9.292,-0.008,0.007,-0.013
235599,1.757,-0.072,-9.28,-0.008,0.007,-0.013
235702,1.755,-0.077,-9.27,-0.008,0.006,-0.013
235805,1.765,-0.074,-9.292,-0.008,0.007,-0.013
235908,1.76,-0.072,-9.275,-0.008,0.007,-0.013
236011,1.757,-0.079,-9.275,-0.008,0.007,-0.014
236114,1.757,-0.069,-9.273,-0.009,0.007,-0.013
236217,1.748,-0.06,-9.273,-0.008,0.007,-0.013
236320,1.755,-0.055,-9.273,-0.008,0.007,-0.013
236423,1.753,-0.062,-9.287,-0.008,0.007,-0.013
236526,1.75,-0.072,-9.28,-0.008,0.007,-0.013
236629,1.762,-0.067,-9.287,-0.009,0.007,-0.013
236732,1.757,-0.072,-9.285,-0.009,0.007,-0.014
236835,1.757,-0.069,-9.28,-0.008,0.007,-0.013
236938,1.757,-0.072,-9.28,-0.009,0.007,-0.013
237041,1.755,-0.067,-9.301,-0.008,0.007,-0.013
237144,1.75,-0.072,-9.273,-0.008,0.007,-0.014
237247,1.767,-0.062,-9.285,-0.008,0.007,-0.013
237350,1.755,-0.072,-9.294,-0.008,0.007,-0.013
237453,1.767,-0.067,-9.275,-0.008,0.007,-0.013
237556,1.769,-0.069,-9.285,-0.008,0.007,-0.013
237659,1.755,-0.072,-9.27,-0.008,0.007,-0.013
237762,1.755,-0.062,-9.268,-0.008,0.007,-0.013
237865,1.757,-0.081,-9.278,-0.008,0.007,-0.013
237968,1.76,-0.062,-9.285,-0.008,0.007,-0.014
238071,1.765,-0.072,-9.28,-0.008,0.007,-0.013
238174,1.755,-0.067,-9.275,-0.008,0.007,-0.013
238277,1.753,-0.069,-9.275,-0.008,0.007,-0.013
238380,1.765,-0.079,-9.29,-0.008,0.007,-0.013
238483,1.755,-0.074,-9.287,-0.008,0.007,-0.013
238586,1.753,-0.077,-9.287,-0.009,0.007,-0.013
238689,1.755,-0.067,-9.258,-0.009,0.007,-0.013
238792,1.748,-0.074,-9.261,-0.008,0.007,-0.013
238895,1.765,-0.062,-9.287,-0.008,0.007,-0.013
238998,1.757,-0.074,-9.275,-0.008,0.007,-0.013
239101,1.748,-0.072,-9.273,-0.008,0.007,-0.013
239204,1.767,-0.06,-9.27,-0.008,0.007,-0.013
239307,1.757,-0.069,-9.266,-0.008,0.007,-0.013
239410,1.765,-0.062,-9.282,-0.008,0.007,-0.013
239513,1.753,-0.067,-9.287,-0.009,0.007,-0.013
239616,1.762,-0.069,-9.278,-0.008,0.007,-0.013
239719,1.76,-0.062,-9.278,-0.009,0.007,-0.014
239822,1.755,-0.072,-9.28,-0.008,0.007,-0.013
239925,1.757,-0.072,-9.282,-0.008,0.007,-0.013
240028,1.765,-0.067,-9.285,-0.008,0.007,-0.013
240131,1.762,-0.062,-9.275,-0.008,0.007,-0.013
240234,1.762,-0.062,-9.282,-0.008,0.007,-0.013
240337,1.769,-0.069,-9.266,-0.008,0.007,-0.013
240440,1.753,-0.062,-9.29,-0.008,0.007,-0.013
240543,1.765,-0.067,-9.268,-0.008,0.007,-0.013
240646,1.762,-0.065,-9.285,-0.008,0.007,-0.013
240749,1.757,-0.074,-9.28,-0.008,0.007,-0.013
240852,1.755,-0.079,-9.297,-0.009,0.007,-0.013
240955,1.76,-0.081,-9.285,-0.008,0.007,-0.013
241058,1.903,-0.079,-9.251,0.014,0.337,-0.003
241161,2.09,-0.089,-9.208,-0.006,0.046,-0.013
241264,2.076,-0.091,-9.213,-0.008,0.009,-0.013
241367,2.083,-0.086,-9.194,-0.008,0.007,-0.013
241470,2.09,-0.079,-9.203,-0.009,0.007,-0.013
241573,2.083,-0.096,-9.208,-0.008,0.007,-0.013
241676,2.076,-0.103,-9.208,-0.008,0.007,-0.013
241779,2.093,-0.089,-9.21,-0.008,0.007,-0.014
241882,2.071,-0.089,-9.213,-0.008,0.007,-0.013
241985,2.073,-0.089,-9.215,-0.008,0.007,-0.013
242088,2.083,-0.093,-9.22,-0.008,0.007,-0.014
242191,2.076,-0.089,-9.206,-0.008,0.007,-0.014
242294,2.085,-0.093,-9.225,-0.008,0.007,-0.013
242397,2.071,-0.091,-9.199,-0.008,0.007,-0.013
242500,2.083,-0.089,-9.215,-0.008,0.007,-0.013
242603,2.083,-0.086,-9.21,-0.008,0.007,-0.013
242706,2.076,-0.096,-9.203,-0.008,0.007,-0.014
242809,2.088,-0.091,-9.213,-0.009,0.007,-0.014
242912,2.083,-0.101,-9.215,-0.009,0.007,-0.013
243015,2.088,-0.103,-9.201,-0.008,0.007,-0.013
243118,2.083,-0.091,-9.208,-0.008,0.007,-0.013
243221,2.081,-0.096,-9.218,-0.009,0.007,-0.013
243324,2.083,-0.103,-9.208,-0.009,0.007,-0.013
243427,2.095,-0.093,-9.218,-0.009,0.007,-0.013
243530,2.071,-0.086,-9.203,-0.008,0.007,-0.013
243633,2.088,-0.091,-9.21,-0.008,0.007,-0.014
243736,2.081,-0.089,-9.215,-0.009,0.007,-0.013
243839,2.078,-0.098,-9.208,-0.009,0.007,-0.013
243942,2.081,-0.086,-9.208,-0.008,0.007,-0.013
244045,2.081,-0.091,-9.206,-0.008,0.007,-0.013
244148,2.081,-0.098,-9.208,-0.008,0.007,-0.013
244251,2.088,-0.093,-9.21,-0.008,0.007,-0.013
244354,2.076,-0.093,-9.21,-0.008,0.007,-0.013
244457,2.076,-0.096,-9.203,-0.008,0.007,-0.014
244560,2.085,-0.089,-9.206,-0.008,0.007,-0.013
244663,2.076,-0.098,-9.21,-0.008,0.007,-0.013
244766,2.085,-0.096,-9.22,-0.008,0.007,-0.013
244869,2.083,-0.084,-9.215,-0.008,0.007,-0.013
244972,2.066,-0.089,-9.201,-0.009,0.007,-0.013
245075,2.078,-0.093,-9.21,-0.008,0.007,-0.013
245178,2.076,-0.098,-9.206,-0.008,0.007,-0.013
245281,2.088,-0.089,-9.21,-0.008,0.007,-0.013
245384,2.09,-0.081,-9.22,-0.008,0.007,-0.013
245487,2.088,-0.091,-9.194,-0.008,0.007,-0.013
245590,2.081,-0.086,-9.215,-0.008,0.007,-0.014
245693,2.09,-0.096,-9.189,-0.009,0.007,-0.014
245796,2.069,-0.091,-9.208,-0.008,0.007,-0.013
245899,2.083,-0.091,-9.208,-0.008,0.007,-0.013
246002,2.083,-0.096,-9.206,-0.008,0.007,-0.013
246105,2.073,-0.091,-9.201,-0.008,0.007,-0.014
246208,2.088,-0.084,-9.208,-0.008,0.007,-0.014
246311,2.083,-0.091,-9.213,-0.008,0.007,-0.013
246414,2.088,-0.096,-9.199,-0.008,0.007,-0.013
246517,2.093,-0.086,-9.218,-0.008,0.007,-0.013
246620,2.085,-0.093,-9.208,-0.009,0.007,-0.013
246723,2.085,-0.096,-9.218,-0.008,0.007,-0.013
246826,2.09,-0.093,-9.213,-0.008,0.007,-0.013
246929,2.085,-0.091,-9.22,-0.009,0.007,-0.013
247032,2.088,-0.093,-9.203,-0.008,0.007,-0.013
247135,2.081,-0.091,-9.206,-0.008,0.007,-0.013
247238,2.076,-0.093,-9.208,-0.008,0.007,-0.014
247341,2.081,-0.089,-9.206,-0.008,0.007,-0.013
247444,2.083,-0.096,-9.201,-0.009,0.007,-0.013
247547,2.09,-0.105,-9.206,-0.008,0.007,-0.013
247650,2.09,-0.098,-9.21,-0.008,0.007,-0.013
247753,2.069,-0.091,-9.21,-0.009,0.007,-0.013
247856,2.083,-0.086,-9.203,-0.008,0.007,-0.013
247959,2.093,-0.086,-9.21,-0.008,0.007,-0.013
248062,2.085,-0.089,-9.208,-0.009,0.007,-0.013
248165,2.083,-0.098,-9.194,-0.008,0.007,-0.013
248268,2.083,-0.086,-9.22,-0.008,0.007,-0.013
248371,2.085,-0.091,-9.222,-0.008,0.007,-0.013
248474,2.09,-0.084,-9.218,-0.008,0.007,-0.013
248577,2.076,-0.084,-9.21,-0.008,0.007,-0.013
248680,2.095,-0.089,-9.215,-0.008,0.007,-0.013
248783,2.081,-0.091,-9.213,-0.009,0.007,-0.013
248886,2.073,-0.091,-9.21,-0.008,0.007,-0.013
248989,2.085,-0.098,-9.208,-0.008,0.007,-0.013
249092,2.088,-0.089,-9.187,-0.008,0.007,-0.013
249195,2.09,-0.084,-9.203,-0.008,0.007,-0.014
249298,2.085,-0.098,-9.215,-0.008,0.007,-0.013
249401,2.085,-0.084,-9.222,-0.009,0.007,-0.013
249504,2.083,-0.103,-9.196,-0.008,0.007,-0.013
249607,2.078,-0.096,-9.206,-0.009,0.007,-0.013
249710,2.078,-0.091,-9.199,-0.008,0.007,-0.013
249813,2.078,-0.086,-9.218,-0.008,0.007,-0.014
249916,2.09,-0.086,-9.218,-0.008,0.007,-0.013
250019,2.078,-0.081,-9.222,-0.009,0.007,-0.013
250122,2.088,-0.093,-9.222,-0.009,0.007,-0.013
250225,2.081,-0.089,-9.215,-0.008,0.007,-0.013
250328,2.078,-0.084,-9.206,-0.008,0.007,-0.013
250431,2.09,-0.081,-9.208,-0.008,0.007,-0.013
250534,2.081,-0.093,-9.206,-0.008,0.007,-0.013
250637,2.076,-0.091,-9.208,-0.008,0.008,-0.013
250740,2.081,-0.086,-9.206,-0.008,0.007,-0.014
250843,2.081,-0.093,-9.203,-0.008,0.007,-0.013
250946,2.085,-0.096,-9.21,-0.008,0.007,-0.013
251049,2.076,-0.096,-9.218,-0.009,0.007,-0.013
251152,2.085,-0.096,-9.201,-0.008,0.007,-0.013
251255,2.083,-0.086,-9.22,-0.008,0.007,-0.013
251358,2.083,-0.093,-9.203,-0.009,0.007,-0.013
251461,2.083,-0.101,-9.213,-0.009,0.007,-0.013
251564,2.093,-0.096,-9.199,-0.008,0.007,-0.013
251667,2.078,-0.089,-9.203,-0.008,0.007,-0.013
251770,2.078,-0.096,-9.213,-0.008,0.007,-0.013
251873,2.088,-0.089,-9.213,-0.008,0.007,-0.013
251976,2.078,-0.089,-9.22,-0.008,0.007,-0.014
252079,2.085,-0.091,-9.213,-0.008,0.007,-0.014
252182,2.085,-0.084,-9.218,-0.008,0.007,-0.013
252285,2.073,-0.089,-9.208,-0.008,0.007,-0.013
252388,2.09,-0.093,-9.203,-0.008,0.008,-0.013
252491,2.09,-0.086,-9.213,-0.008,0.007,-0.013
252594,2.078,-0.084,-9.21,-0.008,0.007,-0.013
252697,2.083,-0.093,-9.225,-0.008,0.007,-0.013
252800,2.088,-0.086,-9.218,-0.008,0.007,-0.013
252903,2.085,-0.081,-9.203,-0.009,0.007,-0.013
253006,2.095,-0.084,-9.218,-0.008,0.007,-0.013
253109,2.069,-0.096,-9.201,-0.009,0.007,-0.013
253212,2.095,-0.103,-9.21,-0.008,0.007,-0.013
253315,2.076,-0.091,-9.201,-0.008,0.007,-0.013
253418,2.083,-0.101,-9.215,-0.009,0.006,-0.013
253521,2.095,-0.091,-9.218,-0.008,0.007,-0.013
253624,2.085,-0.098,-9.203,-0.008,0.007,-0.013
253727,2.095,-0.091,-9.208,-0.008,0.007,-0.013
253830,2.09,-0.086,-9.218,-0.008,0.007,-0.014
253933,2.076,-0.093,-9.196,-0.008,0.007,-0.013
254036,2.09,-0.091,-9.225,-0.008,0.007,-0.014
254139,2.085,-0.091,-9.208,-0.008,0.007,-0.013
254242,2.083,-0.093,-9.215,-0.009,0.007,-0.013
254345,2.09,-0.091,-9.215,-0.008,0.007,-0.013
254448,2.081,-0.084,-9.213,-0.008,0.007,-0.013
254551,2.088,-0.101,-9.199,-0.008,0.007,-0.013
254654,2.081,-0.093,-9.201,-0.008,0.007,-0.013
254757,2.073,-0.081,-9.206,-0.008,0.007,-0.013
254860,2.088,-0.091,-9.218,-0.008,0.007,-0.013
254963,2.083,-0.098,-9.191,-0.009,0.007,-0.013
255066,2.088,-0.108,-9.172,-0.008,0.007,-0.013
255169,2.083,-0.089,-9.208,-0.008,0.007,-0.013
255272,2.085,-0.093,-9.218,-0.008,0.007,-0.013
255375,2.083,-0.089,-9.206,-0.008,0.007,-0.013
255478,2.085,-0.098,-9.203,-0.008,0.007,-0.013
255581,2.085,-0.096,-9.201,-0.008,0.007,-0.013
255684,2.09,-0.091,-9.203,-0.009,0.007,-0.013
255787,2.085,-0.093,-9.213,-0.009,0.007,-0.013
255890,2.076,-0.086,-9.213,-0.008,0.007,-0.013
255993,2.09,-0.089,-9.23,-0.008,0.007,-0.013
256096,2.078,-0.089,-9.201,-0.008,0.007,-0.013
256199,2.071,-0.098,-9.21,-0.008,0.007,-0.013
256302,2.081,-0.091,-9.213,-0.008,0.007,-0.013
256405,2.076,-0.089,-9.199,-0.008,0.007,-0.013
256508,2.081,-0.089,-9.201,-0.008,0.007,-0.013
256611,2.09,-0.089,-9.208,-0.008,0.007,-0.013
256714,2.073,-0.093,-9.208,-0.008,0.007,-0.013
256817,2.097,-0.093,-9.203,-0.008,0.007,-0.013
256920,2.081,-0.101,-9.215,-0.008,0.007,-0.013
257023,2.09,-0.093,-9.199,-0.008,0.007,-0.013
257126,2.088,-0.084,-9.21,-0.008,0.007,-0.013
257229,2.078,-0.093,-9.218,-0.008,0.007,-0.013
257332,2.066,-0.081,-9.203,-0.009,0.007,-0.013
257435,2.097,-0.089,-9.208,-0.008,0.007,-0.013
257538,2.076,-0.091,-9.218,-0.008,0.007,-0.013
257641,2.083,-0.086,-9.208,-0.008,0.008,-0.013
257744,2.078,-0.084,-9.213,-0.008,0.007,-0.013
257847,2.088,-0.084,-9.203,-0.008,0.007,-0.013
257950,2.085,-0.101,-9.201,-0.008,0.008,-0.013
258053,2.085,-0.096,-9.21,-0.008,0.007,-0.013
258156,2.073,-0.084,-9.213,-0.008,0.008,-0.013
258259,2.081,-0.093,-9.208,-0.008,0.007,-0.013
258362,2.069,-0.093,-9.206,-0.008,0.007,-0.013
258465,2.081,-0.098,-9.199,-0.008,0.008,-0.013
258568,2.09,-0.093,-9.199,-0.008,0.007,-0.013
258671,2.073,-0.098,-9.218,-0.008,0.007,-0.013
258774,2.081,-0.089,-9.189,-0.008,0.007,-0.013
258877,2.081,-0.086,-9.21,-0.008,0.007,-0.013
258980,2.078,-0.101,-9.203,-0.008,0.007,-0.013
259083,2.09,-0.101,-9.213,-0.008,0.007,-0.014
259186,2.081,-0.084,-9.225,-0.008,0.007,-0.013
259289,2.081,-0.086,-9.227,-0.008,0.007,-0.013
259392,2.088,-0.089,-9.215,-0.008,0.007,-0.013
259495,2.081,-0.091,-9.194,-0.008,0.007,-0.014
259598,2.078,-0.093,-9.222,-0.008,0.007,-0.013
259701,2.088,-0.089,-9.218,-0.008,0.007,-0.013
259804,2.073,-0.098,-9.191,-0.008,0.007,-0.013
259907,2.081,-0.093,-9.201,-0.009,0.007,-0.013
260010,2.088,-0.101,-9.208,-0.008,0.007,-0.013
260113,2.085,-0.091,-9.215,-0.008,0.007,-0.013
260216,2.076,-0.077,-9.218,-0.008,0.007,-0.014
260319,2.071,-0.084,-9.215,-0.008,0.007,-0.013
260422,2.073,-0.091,-9.206,-0.009,0.007,-0.013
260525,2.083,-0.101,-9.227,-0.008,0.007,-0.013
260628,2.09,-0.091,-9.203,-0.008,0.007,-0.013
260731,2.083,-0.091,-9.21,-0.008,0.007,-0.014
260834,2.083,-0.098,-9.22,-0.008,0.007,-0.013
260937,2.078,-0.098,-9.199,-0.008,0.007,-0.014
261040,2.081,-0.091,-9.208,-0.008,0.007,-0.013
261143,2.083,-0.098,-9.213,-0.008,0.007,-0.013
261246,2.085,-0.096,-9.22,-0.008,0.007,-0.013
261349,2.088,-0.093,-9.199,-0.008,0.007,-0.013
261452,2.083,-0.089,-9.196,-0.008,0.007,-0.013
261555,2.078,-0.096,-9.203,-0.008,0.007,-0.013
261658,2.093,-0.086,-9.201,-0.008,0.007,-0.013
261761,2.078,-0.086,-9.196,-0.008,0.007,-0.013
261864,2.081,-0.091,-9.208,-0.008,0.007,-0.013
261967,2.081,-0.086,-9.22,-0.008,0.007,-0.013
262070,2.081,-0.093,-9.213,-0.008,0.007,-0.013
262173,2.085,-0.091,-9.22,-0.008,0.007,-0.013
262276,2.073,-0.093,-9.208,-0.008,0.007,-0.013
262379,2.081,-0.089,-9.191,-0.008,0.007,-0.013
262482,2.078,-0.096,-9.21,-0.008,0.008,-0.013
262585,2.076,-0.089,-9.203,-0.008,0.007,-0.013
262688,2.081,-0.103,-9.203,-0.008,0.007,-0.013
262791,2.081,-0.086,-9.218,-0.008,0.007,-0.013
262894,2.076,-0.091,-9.206,-0.009,0.007,-0.014
262997,2.083,-0.089,-9.215,-0.008,0.008,-0.013
263100,2.081,-0.084,-9.199,-0.008,0.007,-0.013
263203,2.083,-0.086,-9.215,-0.008,0.007,-0.013
263306,2.095,-0.089,-9.213,-0.008,0.007,-0.013
263409,2.078,-0.086,-9.203,-0.008,0.007,-0.013
263512,2.076,-0.101,-9.218,-0.008,0.007,-0.013
263615,2.095,-0.098,-9.227,-0.008,0.007,-0.014
263718,2.073,-0.086,-9.187,-0.008,0.007,-0.013
263821,2.078,-0.079,-9.215,-0.009,0.007,-0.013
263924,2.073,-0.093,-9.206,-0.008,0.007,-0.013
264027,2.069,-0.089,-9.21,-0.008,0.007,-0.013
264130,2.085,-0.084,-9.21,-0.008,0.007,-0.013
264233,2.088,-0.084,-9.206,-0.009,0.007,-0.013
264336,2.078,-0.084,-9.21,-0.008,0.007,-0.014
264439,2.088,-0.081,-9.222,-0.008,0.007,-0.013
264542,2.081,-0.096,-9.203,-0.008,0.007,-0.013
264645,2.088,-0.086,-9.203,-0.008,0.007,-0.013
264748,2.083,-0.093,-9.199,-0.008,0.007,-0.013
264851,2.081,-0.089,-9.206,-0.008,0.007,-0.013
264954,2.097,-0.089,-9.194,-0.008,0.007,-0.013
265057,2.076,-0.101,-9.199,-0.008,0.007,-0.013
265160,2.085,-0.101,-9.201,-0.008,0.007,-0.013
265263,2.09,-0.079,-9.206,-0.008,0.007,-0.013
265366,2.083,-0.093,-9.199,-0.008,0.007,-0.013
265469,2.081,-0.089,-9.203,-0.008,0.007,-0.014
265572,2.093,-0.089,-9.203,-0.008,0.007,-0.013
265675,2.078,-0.091,-9.208,-0.009,0.007,-0.013
265778,2.069,-0.091,-9.22,-0.008,0.007,-0.014
265881,2.093,-0.089,-9.21,-0.008,0.007,-0.013
265984,2.083,-0.091,-9.208,-0.008,0.007,-0.013
266087,2.081,-0.093,-9.213,-0.008,0.007,-0.013
266190,2.083,-0.086,-9.194,-0.009,0.007,-0.013
266293,2.085,-0.091,-9.21,-0.009,0.007,-0.014
266396,2.09,-0.093,-9.206,-0.009,0.007,-0.013
266499,2.078,-0.096,-9.218,-0.008,0.007,-0.013
266602,2.078,-0.093,-9.21,-0.008,0.007,-0.013
266705,2.078,-0.091,-9.208,-0.008,0.007,-0.013
266808,2.083,-0.091,-9.199,-0.008,0.007,-0.013
266911,2.09,-0.096,-9.208,-0.008,0.007,-0.013
267014,2.081,-0.091,-9.213,-0.008,0.007,-0.013
267117,2.078,-0.098,-9.218,-0.009,0.007,-0.013
267220,2.095,-0.096,-9.206,-0.008,0.007,-0.013
267323,2.085,-0.091,-9.215,-0.008,0.007,-0.013
267426,2.085,-0.096,-9.203,-0.008,0.007,-0.013
267529,2.09,-0.089,-9.208,-0.008,0.007,-0.014
267632,2.088,-0.093,-9.201,-0.008,0.007,-0.013
267735,2.083,-0.103,-9.213,-0.008,0.007,-0.013
267838,2.093,-0.084,-9.196,-0.008,0.007,-0.013
267941,2.081,-0.093,-9.206,-0.008,0.007,-0.013
268044,2.085,-0.089,-9.227,-0.008,0.007,-0.013
268147,2.093,-0.086,-9.213,-0.008,0.007,-0.013
268250,2.085,-0.081,-9.21,-0.008,0.007,-0.013
268353,2.085,-0.093,-9.215,-0.008,0.007,-0.013
268456,2.088,-0.091,-9.199,-0.008,0.007,-0.013
