time (ms),acceleration x,acceleration y,acceleration z,gyro x,gyro y,gyro z
656,0.541,-0.239,-9.517,-0.007,0.013,-0.019
759,0.553,-0.237,-9.515,-0.007,0.012,-0.02
862,0.527,-0.237,-9.515,-0.007,0.013,-0.019
965,0.541,-0.23,-9.522,-0.007,0.013,-0.02
1068,0.543,-0.247,-9.519,-0.007,0.012,-0.019
1171,0.548,-0.239,-9.519,-0.008,0.012,-0.019
1274,0.532,-0.232,-9.515,-0.007,0.012,-0.02
1377,0.536,-0.247,-9.524,-0.007,0.012,-0.019
1480,0.532,-0.237,-9.527,-0.008,0.012,-0.02
1583,0.539,-0.244,-9.527,-0.007,0.013,-0.02
1686,0.541,-0.249,-9.517,-0.007,0.012,-0.019
1789,0.534,-0.242,-9.522,-0.007,0.012,-0.02
1892,0.539,-0.249,-9.524,-0.008,0.012,-0.019
1995,0.541,-0.244,-9.522,-0.007,0.012,-0.019
2098,0.532,-0.242,-9.524,-0.007,0.012,-0.02
2201,0.536,-0.237,-9.527,-0.008,0.012,-0.019
2304,0.534,-0.239,-9.534,-0.008,0.011,-0.019
2407,0.553,-0.247,-9.531,-0.007,0.012,-0.019
2510,0.532,-0.242,-9.524,-0.007,0.012,-0.019
2613,0.541,-0.247,-9.531,-0.007,0.013,-0.019
2716,0.536,-0.256,-9.534,-0.007,0.012,-0.02
2819,0.532,-0.259,-9.534,-0.007,0.012,-0.019
2922,0.541,-0.247,-9.543,-0.008,0.013,-0.019
3025,0.539,-0.244,-9.519,-0.008,0.012,-0.019
3128,0.527,-0.239,-9.531,-0.007,0.012,-0.019
3231,0.529,-0.239,-9.529,-0.007,0.013,-0.019
3334,0.548,-0.237,-9.529,-0.008,0.012,-0.019
3437,0.541,-0.242,-9.515,-0.007,0.012,-0.019
3540,0.543,-0.239,-9.529,-0.007,0.012,-0.02
3643,0.541,-0.235,-9.524,-0.008,0.013,-0.02
3746,0.536,-0.256,-9.519,-0.008,0.012,-0.019
3849,0.543,-0.247,-9.531,-0.007,0.012,-0.019
3952,0.534,-0.244,-9.522,-0.007,0.012,-0.019
4055,0.543,-0.237,-9.529,-0.007,0.012,-0.019
4158,0.543,-0.237,-9.515,-0.008,0.012,-0.019
4261,0.539,-0.23,-9.522,-0.008,0.012,-0.02
4364,0.548,-0.247,-9.531,-0.007,0.012,-0.019
4467,0.529,-0.232,-9.527,-0.008,0.012,-0.019
4570,0.536,-0.242,-9.524,-0.008,0.012,-0.02
4673,0.548,-0.237,-9.534,-0.007,0.012,-0.019
4776,0.539,-0.249,-9.527,-0.008,0.013,-0.019
4879,0.534,-0.242,-9.534,-0.008,0.013,-0.02
4982,0.546,-0.244,-9.522,-0.008,0.012,-0.02
5085,0.543,-0.239,-9.522,-0.007,0.013,-0.019
5188,0.534,-0.244,-9.538,-0.008,0.013,-0.02
5291,0.536,-0.235,-9.527,-0.007,0.012,-0.019
5394,0.546,-0.244,-9.531,-0.008,0.012,-0.019
5497,0.536,-0.239,-9.512,-0.008,0.012,-0.02
5600,0.548,-0.244,-9.534,-0.007,0.012,-0.019
5703,0.541,-0.242,-9.536,-0.007,0.012,-0.019
5806,0.539,-0.247,-9.524,-0.007,0.012,-0.019
5909,0.534,-0.237,-9.527,-0.008,0.013,-0.019
6012,0.539,-0.249,-9.536,-0.008,0.012,-0.019
6115,0.541,-0.232,-9.531,-0.007,0.012,-0.019
6218,0.543,-0.237,-9.524,-0.007,0.012,-0.019
6321,0.543,-0.247,-9.531,-0.008,0.012,-0.019
6424,0.534,-0.239,-9.531,-0.008,0.012,-0.019
6527,0.543,-0.239,-9.531,-0.008,0.012,-0.019
6630,0.546,-0.239,-9.519,-0.008,0.012,-0.019
6733,0.546,-0.247,-9.534,-0.008,0.012,-0.02
6836,0.543,-0.244,-9.534,-0.008,0.012,-0.019
6939,0.534,-0.239,-9.531,-0.007,0.012,-0.019
7042,0.539,-0.235,-9.538,-0.007,0.012,-0.019
7145,0.543,-0.239,-9.522,-0.008,0.012,-0.019
7248,0.543,-0.244,-9.538,-0.008,0.012,-0.019
7351,0.536,-0.247,-9.529,-0.007,0.012,-0.02
7454,0.539,-0.247,-9.524,-0.008,0.012,-0.02
7557,0.541,-0.239,-9.524,-0.008,0.012,-0.019
7660,0.534,-0.239,-9.529,-0.007,0.012,-0.019
7763,0.539,-0.232,-9.524,-0.007,0.012,-0.02
7866,0.534,-0.242,-9.531,-0.007,0.012,-0.019
7969,0.543,-0.239,-9.536,-0.007,0.012,-0.02
8072,0.534,-0.242,-9.534,-0.008,0.012,-0.019
8175,0.536,-0.242,-9.541,-0.007,0.012,-0.02
8278,0.536,-0.23,-9.534,-0.008,0.013,-0.02
8381,0.543,-0.242,-9.534,-0.008,0.013,-0.02
8484,0.539,-0.256,-9.531,-0.008,0.013,-0.019
8587,0.543,-0.251,-9.536,-0.008,0.012,-0.02
8690,0.532,-0.244,-9.524,-0.008,0.011,-0.02
8793,0.534,-0.237,-9.534,-0.008,0.012,-0.019
8896,0.541,-0.247,-9.538,-0.007,0.012,-0.019
8999,0.515,-0.218,-9.586,-0.006,0.011,-0.014
9102,0.524,-0.247,-9.522,-0.007,0.012,-0.019
9205,0.532,-0.242,-9.543,-0.007,0.012,-0.019
9308,0.539,-0.249,-9.548,-0.008,0.012,-0.019
9411,0.546,-0.242,-9.541,-0.007,0.012,-0.02
9514,0.532,-0.254,-9.534,-0.008,0.012,-0.019
9617,0.543,-0.235,-9.534,-0.008,0.012,-0.019
9720,0.534,-0.251,-9.536,-0.008,0.012,-0.019
9823,0.536,-0.242,-9.536,-0.007,0.012,-0.019
9926,0.541,-0.242,-9.527,-0.008,0.012,-0.019
10029,0.534,-0.239,-9.519,-0.007,0.012,-0.019
10132,0.534,-0.242,-9.522,-0.007,0.012,-0.02
10235,0.541,-0.244,-9.534,-0.007,0.013,-0.019
10338,0.536,-0.247,-9.529,-0.008,0.013,-0.019
10441,0.539,-0.239,-9.548,-0.008,0.012,-0.019
10544,0.534,-0.247,-9.546,-0.007,0.012,-0.019
10647,0.534,-0.249,-9.543,-0.008,0.012,-0.02
10750,0.543,-0.242,-9.519,-0.008,0.012,-0.019
10853,0.529,-0.237,-9.536,-0.008,0.012,-0.02
10956,0.532,-0.249,-9.536,-0.008,0.012,-0.019
11059,0.527,-0.244,-9.529,-0.008,0.012,-0.019
11162,0.539,-0.237,-9.546,-0.008,0.012,-0.019
11265,0.515,-0.254,-9.524,-0.007,0.012,-0.019
11368,0.51,-0.261,-9.541,-0.008,0.013,-0.019
11471,0.539,-0.254,-9.527,-0.007,0.013,-0.02
11574,0.543,-0.247,-9.538,-0.007,0.012,-0.02
11677,0.536,-0.251,-9.531,-0.008,0.013,-0.019
11780,0.517,-0.259,-9.495,-0.008,0.012,-0.021
11883,0.548,-0.242,-9.548,-0.008,0.012,-0.02
11986,0.541,-0.244,-9.558,-0.007,0.012,-0.019
12089,0.539,-0.239,-9.531,-0.008,0.012,-0.019
12192,0.536,-0.237,-9.524,-0.007,0.012,-0.019
12295,0.536,-0.251,-9.524,-0.007,0.012,-0.019
12398,0.534,-0.237,-9.541,-0.008,0.013,-0.019
12501,0.534,-0.239,-9.529,-0.007,0.012,-0.019
12604,0.529,-0.239,-9.534,-0.008,0.012,-0.019
12707,0.529,-0.242,-9.522,-0.008,0.012,-0.019
12810,0.543,-0.23,-9.534,-0.008,0.012,-0.019
12913,0.555,-0.242,-9.531,-0.008,0.012,-0.019
13016,0.532,-0.237,-9.529,-0.008,0.012,-0.02
13119,0.539,-0.242,-9.519,-0.008,0.012,-0.019
13222,0.543,-0.235,-9.522,-0.008,0.013,-0.019
13325,0.541,-0.247,-9.522,-0.007,0.012,-0.019
13428,0.536,-0.244,-9.522,-0.007,0.012,-0.019
13531,0.541,-0.249,-9.515,-0.008,0.012,-0.02
13634,0.539,-0.242,-9.519,-0.008,0.012,-0.019
13737,0.548,-0.244,-9.536,-0.009,0.012,-0.019
13840,0.534,-0.232,-9.529,-0.008,0.012,-0.019
13943,0.534,-0.239,-9.527,-0.007,0.012,-0.02
14046,0.543,-0.237,-9.541,-0.008,0.012,-0.02
14149,0.543,-0.247,-9.529,-0.007,0.012,-0.019
14252,0.541,-0.239,-9.531,-0.008,0.012,-0.019
14355,0.536,-0.242,-9.524,-0.008,0.012,-0.019
14458,0.546,-0.232,-9.541,-0.008,0.012,-0.019
14561,0.553,-0.239,-9.517,-0.007,0.012,-0.019
14664,0.534,-0.239,-9.534,-0.008,0.011,-0.019
14767,0.536,-0.247,-9.543,-0.007,0.012,-0.019
14870,0.539,-0.239,-9.527,-0.007,0.012,-0.019
14973,0.539,-0.232,-9.546,-0.008,0.012,-0.02
15076,0.534,-0.251,-9.538,-0.008,0.012,-0.019
15179,0.539,-0.247,-9.529,-0.008,0.013,-0.019
15282,0.536,-0.239,-9.524,-0.008,0.012,-0.019
15385,0.543,-0.239,-9.529,-0.007,0.012,-0.019
15488,0.536,-0.254,-9.541,-0.008,0.012,-0.019
15591,0.541,-0.239,-9.538,-0.007,0.012,-0.019
15694,0.539,-0.239,-9.515,-0.008,0.012,-0.019
15797,0.532,-0.242,-9.546,-0.008,0.012,-0.02
15900,0.534,-0.242,-9.529,-0.007,0.012,-0.019
16003,0.534,-0.23,-9.536,-0.008,0.012,-0.019
16106,0.541,-0.242,-9.529,-0.008,0.012,-0.02
16209,0.543,-0.249,-9.536,-0.007,0.012,-0.019
16312,0.532,-0.244,-9.522,-0.007,0.012,-0.019
16415,0.532,-0.237,-9.541,-0.007,0.012,-0.019
16518,0.536,-0.244,-9.536,-0.007,0.013,-0.02
16621,0.546,-0.239,-9.522,-0.008,0.012,-0.019
16724,0.536,-0.247,-9.531,-0.007,0.011,-0.019
16827,0.534,-0.237,-9.519,-0.007,0.013,-0.02
16930,0.529,-0.239,-9.534,-0.008,0.012,-0.02
17033,0.534,-0.239,-9.546,-0.008,0.012,-0.019
17136,0.548,-0.235,-9.524,-0.008,0.013,-0.02
17239,0.536,-0.237,-9.527,-0.007,0.012,-0.019
17342,0.539,-0.239,-9.536,-0.007,0.013,-0.02
17445,0.539,-0.239,-9.519,-0.008,0.012,-0.02
17548,0.548,-0.242,-9.546,-0.007,0.012,-0.02
17651,0.546,-0.244,-9.527,-0.008,0.012,-0.019
17754,0.534,-0.239,-9.529,-0.007,0.012,-0.019
17857,0.543,-0.247,-9.527,-0.007,0.012,-0.02
17960,0.546,-0.249,-9.534,-0.008,0.012,-0.02
18063,0.539,-0.242,-9.541,-0.008,0.012,-0.02
18166,0.551,-0.242,-9.536,-0.008,0.012,-0.019
18269,0.536,-0.242,-9.529,-0.008,0.012,-0.02
18372,0.536,-0.244,-9.529,-0.008,0.012,-0.019
18475,0.536,-0.242,-9.529,-0.007,0.012,-0.019
18578,0.543,-0.242,-9.519,-0.008,0.013,-0.02
18681,0.532,-0.239,-9.515,-0.007,0.012,-0.019
18784,0.553,-0.251,-9.529,-0.008,0.012,-0.019
18887,0.548,-0.235,-9.524,-0.008,0.012,-0.019
18990,0.539,-0.242,-9.538,-0.008,0.012,-0.019
19093,0.541,-0.242,-9.548,-0.008,0.012,-0.02
19196,0.536,-0.242,-9.527,-0.008,0.012,-0.02
19299,0.534,-0.244,-9.536,-0.007,0.012,-0.019
19402,0.532,-0.244,-9.536,-0.008,0.013,-0.02
19505,0.536,-0.242,-9.529,-0.008,0.012,-0.02
19608,0.543,-0.239,-9.536,-0.008,0.012,-0.019
19711,0.541,-0.242,-9.546,-0.007,0.012,-0.019
19814,0.551,-0.249,-9.529,-0.007,0.012,-0.02
19917,0.543,-0.249,-9.534,-0.008,0.012,-0.019
20020,0.532,-0.237,-9.519,-0.008,0.012,-0.019
20123,0.539,-0.242,-9.524,-0.007,0.012,-0.019
20226,0.541,-0.251,-9.524,-0.008,0.012,-0.019
20329,0.548,-0.247,-9.531,-0.008,0.012,-0.019
20432,0.543,-0.232,-9.534,-0.008,0.011,-0.019
20535,0.534,-0.239,-9.529,-0.008,0.012,-0.02
20638,0.546,-0.242,-9.543,-0.007,0.012,-0.019
20741,0.539,-0.239,-9.541,-0.008,0.012,-0.019
20844,0.536,-0.237,-9.536,-0.008,0.012,-0.019
20947,0.534,-0.239,-9.536,-0.008,0.012,-0.019
21050,0.699,-0.259,-9.491,0.022,0.476,-0.026
21153,1.147,-0.278,-9.493,-0.001,0.121,-0.019
21256,1.125,-0.278,-9.471,-0.008,0.017,-0.019
21359,1.12,-0.283,-9.483,-0.007,0.012,-0.019
21462,1.132,-0.278,-9.481,-0.007,0.012,-0.019
21565,1.13,-0.283,-9.469,-0.008,0.012,-0.02
21668,1.135,-0.278,-9.479,-0.008,0.012,-0.019
21771,1.137,-0.278,-9.469,-0.007,0.013,-0.02
21874,1.135,-0.278,-9.471,-0.007,0.012,-0.019
21977,1.132,-0.278,-9.476,-0.008,0.013,-0.019
22080,1.125,-0.273,-9.467,-0.008,0.013,-0.02
22183,1.137,-0.285,-9.467,-0.008,0.012,-0.019
22286,1.13,-0.273,-9.488,-0.008,0.012,-0.019
22389,1.128,-0.275,-9.471,-0.008,0.012,-0.019
22492,1.135,-0.285,-9.479,-0.007,0.012,-0.02
22595,1.14,-0.292,-9.483,-0.007,0.012,-0.019
22698,1.13,-0.275,-9.491,-0.007,0.012,-0.02
22801,1.137,-0.275,-9.469,-0.007,0.012,-0.02
22904,1.128,-0.278,-9.469,-0.007,0.012,-0.02
23007,1.128,-0.287,-9.474,-0.007,0.012,-0.02
23110,1.13,-0.28,-9.469,-0.007,0.012,-0.02
23213,1.125,-0.28,-9.457,-0.008,0.012,-0.019
23316,1.128,-0.28,-9.469,-0.008,0.012,-0.019
23419,1.132,-0.285,-9.474,-0.007,0.012,-0.02
23522,1.125,-0.283,-9.481,-0.007,0.012,-0.02
23625,1.135,-0.271,-9.479,-0.007,0.012,-0.02
23728,1.125,-0.278,-9.469,-0.008,0.012,-0.02
23831,1.13,-0.283,-9.476,-0.008,0.012,-0.019
23934,1.123,-0.29,-9.488,-0.007,0.012,-0.019
24037,1.135,-0.275,-9.491,-0.008,0.012,-0.02
24140,1.13,-0.278,-9.474,-0.008,0.013,-0.02
24243,1.135,-0.278,-9.483,-0.008,0.012,-0.019
24346,1.13,-0.28,-9.486,-0.007,0.011,-0.02
24449,1.142,-0.278,-9.474,-0.008,0.012,-0.02
24552,1.14,-0.273,-9.471,-0.007,0.012,-0.02
24655,1.13,-0.283,-9.464,-0.007,0.012,-0.019
24758,1.116,-0.28,-9.476,-0.008,0.012,-0.02
24861,1.123,-0.283,-9.471,-0.008,0.012,-0.02
24964,1.125,-0.283,-9.476,-0.008,0.012,-0.02
25067,1.132,-0.285,-9.483,-0.007,0.012,-0.02
25170,1.128,-0.266,-9.481,-0.007,0.012,-0.019
25273,1.13,-0.268,-9.471,-0.007,0.012,-0.02
25376,1.125,-0.28,-9.474,-0.007,0.013,-0.02
25479,1.132,-0.283,-9.483,-0.007,0.012,-0.02
25582,1.128,-0.28,-9.467,-0.008,0.012,-0.02
25685,1.125,-0.283,-9.481,-0.007,0.012,-0.019
25788,1.125,-0.287,-9.476,-0.007,0.012,-0.019
25891,1.132,-0.283,-9.467,-0.008,0.012,-0.019
25994,1.123,-0.28,-9.479,-0.007,0.012,-0.019
26097,1.123,-0.271,-9.474,-0.007,0.013,-0.02
26200,1.135,-0.28,-9.462,-0.008,0.012,-0.019
26303,1.135,-0.283,-9.464,-0.008,0.012,-0.02
26406,1.13,-0.271,-9.471,-0.008,0.012,-0.02
26509,1.128,-0.271,-9.457,-0.007,0.012,-0.019
26612,1.118,-0.278,-9.469,-0.007,0.012,-0.02
26715,1.128,-0.283,-9.471,-0.008,0.012,-0.019
26818,1.128,-0.275,-9.467,-0.008,0.012,-0.02
26921,1.13,-0.283,-9.479,-0.008,0.012,-0.019
27024,1.128,-0.275,-9.474,-0.007,0.012,-0.019
27127,1.125,-0.28,-9.469,-0.007,0.012,-0.02
27230,1.13,-0.275,-9.467,-0.007,0.012,-0.019
27333,1.125,-0.28,-9.469,-0.007,0.012,-0.019
27436,1.128,-0.287,-9.476,-0.007,0.012,-0.02
27539,1.137,-0.283,-9.479,-0.008,0.013,-0.019
27642,1.135,-0.273,-9.483,-0.008,0.012,-0.02
27745,1.132,-0.283,-9.483,-0.008,0.012,-0.02
27848,1.132,-0.283,-9.469,-0.008,0.012,-0.019
27951,1.125,-0.275,-9.459,-0.007,0.012,-0.02
28054,1.13,-0.283,-9.476,-0.007,0.012,-0.019
28157,1.132,-0.278,-9.495,-0.008,0.012,-0.019
28260,1.13,-0.287,-9.488,-0.008,0.012,-0.019
28363,1.13,-0.285,-9.479,-0.007,0.012,-0.019
28466,1.125,-0.283,-9.476,-0.007,0.012,-0.019
28569,1.132,-0.29,-9.481,-0.007,0.012,-0.02
28672,1.123,-0.283,-9.474,-0.008,0.012,-0.019
28775,1.137,-0.28,-9.464,-0.008,0.012,-0.019
28878,1.125,-0.292,-9.486,-0.007,0.012,-0.019
28981,1.125,-0.292,-9.474,-0.008,0.012,-0.019
29084,1.125,-0.28,-9.471,-0.008,0.012,-0.019
29187,1.116,-0.273,-9.474,-0.008,0.012,-0.02
29290,1.118,-0.266,-9.464,-0.008,0.012,-0.019
29393,1.12,-0.28,-9.483,-0.007,0.012,-0.02
29496,1.135,-0.292,-9.457,-0.007,0.012,-0.02
29599,1.128,-0.278,-9.481,-0.007,0.012,-0.019
29702,1.128,-0.28,-9.481,-0.008,0.012,-0.019
29805,1.132,-0.28,-9.479,-0.008,0.012,-0.02
29908,1.12,-0.28,-9.474,-0.007,0.012,-0.019
30011,1.13,-0.283,-9.467,-0.007,0.012,-0.019
30114,1.132,-0.283,-9.462,-0.008,0.012,-0.02
30217,1.137,-0.278,-9.479,-0.007,0.011,-0.019
30320,1.132,-0.28,-9.467,-0.007,0.012,-0.02
30423,1.132,-0.278,-9.467,-0.007,0.012,-0.02
30526,1.125,-0.28,-9.479,-0.007,0.012,-0.019
30629,1.132,-0.287,-9.467,-0.008,0.013,-0.02
30732,1.13,-0.273,-9.462,-0.008,0.012,-0.02
30835,1.123,-0.278,-9.471,-0.007,0.012,-0.02
30938,1.135,-0.275,-9.464,-0.008,0.012,-0.019
31041,1.14,-0.278,-9.476,-0.007,0.012,-0.02
31144,1.137,-0.287,-9.479,-0.008,0.012,-0.02
31247,1.13,-0.273,-9.469,-0.008,0.012,-0.02
31350,1.14,-0.278,-9.476,-0.008,0.012,-0.02
31453,1.13,-0.287,-9.462,-0.008,0.012,-0.02
31556,1.13,-0.28,-9.481,-0.007,0.012,-0.02
31659,1.13,-0.278,-9.467,-0.008,0.012,-0.019
31762,1.13,-0.283,-9.469,-0.008,0.012,-0.02
31865,1.13,-0.283,-9.459,-0.007,0.012,-0.019
31968,1.13,-0.28,-9.469,-0.007,0.012,-0.019
32071,1.13,-0.283,-9.476,-0.008,0.012,-0.019
32174,1.123,-0.287,-9.462,-0.007,0.012,-0.02
32277,1.128,-0.28,-9.471,-0.007,0.012,-0.02
32380,1.13,-0.275,-9.459,-0.007,0.013,-0.02
32483,1.135,-0.275,-9.474,-0.008,0.012,-0.02
32586,1.123,-0.275,-9.474,-0.008,0.012,-0.02
32689,1.125,-0.283,-9.471,-0.008,0.012,-0.019
32792,1.135,-0.28,-9.462,-0.008,0.012,-0.019
32895,1.135,-0.28,-9.476,-0.008,0.012,-0.019
32998,1.135,-0.283,-9.471,-0.007,0.012,-0.019
33101,1.128,-0.283,-9.474,-0.008,0.011,-0.02
33204,1.123,-0.29,-9.469,-0.007,0.012,-0.02
33307,1.125,-0.273,-9.476,-0.007,0.013,-0.02
33410,1.128,-0.278,-9.471,-0.008,0.012,-0.019
33513,1.125,-0.285,-9.462,-0.008,0.012,-0.02
33616,1.128,-0.292,-9.462,-0.008,0.012,-0.02
33719,1.14,-0.278,-9.457,-0.008,0.012,-0.019
33822,1.137,-0.28,-9.462,-0.008,0.012,-0.02
33925,1.125,-0.275,-9.462,-0.007,0.012,-0.019
34028,1.128,-0.271,-9.479,-0.007,0.012,-0.02
34131,1.135,-0.283,-9.471,-0.008,0.012,-0.019
34234,1.12,-0.287,-9.469,-0.007,0.012,-0.019
34337,1.125,-0.28,-9.481,-0.007,0.012,-0.02
34440,1.137,-0.287,-9.467,-0.007,0.011,-0.019
34543,1.142,-0.29,-9.474,-0.007,0.012,-0.019
34646,1.13,-0.275,-9.476,-0.007,0.012,-0.019
34749,1.135,-0.287,-9.462,-0.008,0.012,-0.019
34852,1.13,-0.28,-9.483,-0.008,0.012,-0.019
34955,1.132,-0.271,-9.469,-0.007,0.012,-0.019
35058,1.128,-0.278,-9.455,-0.008,0.012,-0.019
35161,1.123,-0.275,-9.471,-0.008,0.012,-0.019
35264,1.132,-0.283,-9.481,-0.007,0.012,-0.019
35367,1.123,-0.273,-9.464,-0.007,0.012,-0.02
35470,1.132,-0.271,-9.483,-0.008,0.012,-0.019
35573,1.125,-0.29,-9.481,-0.008,0.012,-0.02
35676,1.128,-0.28,-9.452,-0.008,0.012,-0.019
35779,1.125,-0.294,-9.469,-0.008,0.012,-0.02
35882,1.123,-0.287,-9.467,-0.007,0.012,-0.019
35985,1.137,-0.283,-9.462,-0.007,0.012,-0.02
36088,1.128,-0.283,-9.471,-0.007,0.012,-0.02
36191,1.135,-0.28,-9.479,-0.008,0.012,-0.02
36294,1.128,-0.283,-9.457,-0.008,0.011,-0.02
36397,1.13,-0.273,-9.469,-0.008,0.012,-0.02
36500,1.13,-0.287,-9.457,-0.007,0.012,-0.02
36603,1.135,-0.266,-9.483,-0.008,0.012,-0.02
36706,1.14,-0.283,-9.476,-0.008,0.013,-0.019
36809,1.125,-0.28,-9.471,-0.008,0.012,-0.02
36912,1.125,-0.278,-9.483,-0.008,0.013,-0.019
37015,1.125,-0.285,-9.469,-0.008,0.012,-0.019
37118,1.13,-0.275,-9.474,-0.007,0.012,-0.02
37221,1.128,-0.29,-9.467,-0.007,0.012,-0.019
37324,1.123,-0.287,-9.471,-0.008,0.012,-0.02
37427,1.135,-0.275,-9.467,-0.008,0.011,-0.02
37530,1.132,-0.285,-9.491,-0.007,0.012,-0.02
37633,1.12,-0.28,-9.464,-0.008,0.012,-0.02
37736,1.128,-0.28,-9.471,-0.008,0.012,-0.02
37839,1.125,-0.28,-9.469,-0.007,0.012,-0.02
37942,1.13,-0.28,-9.469,-0.008,0.011,-0.02
38045,1.13,-0.273,-9.467,-0.008,0.012,-0.02
38148,1.128,-0.275,-9.471,-0.008,0.012,-0.019
38251,1.12,-0.285,-9.476,-0.007,0.013,-0.019
38354,1.128,-0.292,-9.481,-0.007,0.012,-0.019
38457,1.135,-0.283,-9.471,-0.008,0.012,-0.02
38560,1.125,-0.271,-9.452,-0.007,0.012,-0.019
38663,1.123,-0.275,-9.469,-0.007,0.012,-0.019
38766,1.125,-0.278,-9.471,-0.008,0.012,-0.019
38869,1.128,-0.275,-9.471,-0.007,0.012,-0.021
38972,1.13,-0.271,-9.479,-0.008,0.012,-0.02
39075,1.132,-0.283,-9.488,-0.008,0.012,-0.02
39178,1.137,-0.28,-9.481,-0.008,0.012,-0.02
39281,1.132,-0.28,-9.464,-0.007,0.013,-0.02
39384,1.13,-0.285,-9.462,-0.007,0.012,-0.019
39487,1.12,-0.28,-9.464,-0.008,0.012,-0.019
39590,1.13,-0.28,-9.459,-0.008,0.012,-0.02
39693,1.132,-0.275,-9.471,-0.007,0.012,-0.019
39796,1.123,-0.273,-9.467,-0.007,0.012,-0.02
39899,1.128,-0.28,-9.471,-0.007,0.012,-0.02
40002,1.135,-0.278,-9.462,-0.007,0.012,-0.02
40105,1.14,-0.278,-9.481,-0.008,0.012,-0.02
40208,1.125,-0.28,-9.479,-0.007,0.012,-0.02
40311,1.128,-0.278,-9.474,-0.008,0.013,-0.02
40414,1.128,-0.28,-9.471,-0.008,0.012,-0.02
40517,1.14,-0.275,-9.464,-0.007,0.012,-0.02
40620,1.135,-0.287,-9.469,-0.008,0.012,-0.02
40723,1.128,-0.285,-9.457,-0.007,0.012,-0.019
40826,1.135,-0.278,-9.474,-0.007,0.012,-0.019
40929,1.135,-0.275,-9.483,-0.008,0.012,-0.019
41032,1.125,-0.283,-9.476,-0.008,0.012,-0.02
41135,1.125,-0.28,-9.467,-0.007,0.012,-0.02
41238,1.132,-0.287,-9.474,-0.007,0.012,-0.019
41341,1.135,-0.285,-9.469,-0.008,0.012,-0.02
41444,1.128,-0.283,-9.467,-0.008,0.012,-0.02
41547,1.13,-0.273,-9.479,-0.008,0.012,-0.019
41650,1.128,-0.28,-9.476,-0.007,0.012,-0.019
41753,1.125,-0.285,-9.464,-0.008,0.012,-0.02
41856,1.132,-0.278,-9.471,-0.007,0.012,-0.02
41959,1.135,-0.275,-9.479,-0.007,0.012,-0.02
42062,1.137,-0.283,-9.462,-0.008,0.012,-0.019
42165,1.125,-0.283,-9.467,-0.007,0.012,-0.019
42268,1.118,-0.285,-9.469,-0.007,0.012,-0.02
42371,1.123,-0.283,-9.479,-0.008,0.012,-0.02
42474,1.13,-0.287,-9.488,-0.007,0.012,-0.02
42577,1.128,-0.273,-9.474,-0.007,0.012,-0.019
42680,1.132,-0.28,-9.464,-0.007,0.012,-0.02
42783,1.128,-0.283,-9.471,-0.008,0.012,-0.02
42886,1.137,-0.285,-9.455,-0.007,0.012,-0.019
42989,1.135,-0.283,-9.467,-0.008,0.012,-0.02
43092,1.132,-0.283,-9.479,-0.008,0.012,-0.019
43195,1.132,-0.28,-9.483,-0.007,0.012,-0.019
43298,1.128,-0.292,-9.457,-0.007,0.012,-0.02
43401,1.12,-0.285,-9.471,-0.007,0.012,-0.02
43504,1.128,-0.278,-9.459,-0.007,0.013,-0.02
43607,1.128,-0.29,-9.479,-0.007,0.013,-0.02
43710,1.132,-0.278,-9.459,-0.008,0.013,-0.019
43813,1.123,-0.278,-9.471,-0.007,0.012,-0.019
43916,1.123,-0.283,-9.467,-0.008,0.012,-0.02
44019,1.125,-0.285,-9.455,-0.007,0.012,-0.02
44122,1.14,-0.283,-9.459,-0.008,0.012,-0.02
44225,1.135,-0.275,-9.474,-0.008,0.012,-0.02
44328,1.132,-0.285,-9.476,-0.008,0.012,-0.02
44431,1.12,-0.271,-9.467,-0.008,0.012,-0.02
44534,1.135,-0.271,-9.469,-0.008,0.012,-0.02
44637,1.128,-0.287,-9.469,-0.007,0.011,-0.02
44740,1.12,-0.275,-9.469,-0.007,0.012,-0.019
44843,1.123,-0.268,-9.462,-0.007,0.012,-0.02
44946,1.132,-0.278,-9.462,-0.008,0.013,-0.02
45049,1.13,-0.285,-9.479,-0.007,0.012,-0.02
45152,1.137,-0.285,-9.476,-0.007,0.012,-0.019
45255,1.13,-0.285,-9.469,-0.008,0.013,-0.02
45358,1.125,-0.285,-9.471,-0.007,0.012,-0.019
45461,1.135,-0.28,-9.471,-0.007,0.012,-0.019
45564,1.13,-0.28,-9.467,-0.007,0.012,-0.02
45667,1.135,-0.292,-9.479,-0.007,0.012,-0.019
45770,1.13,-0.278,-9.471,-0.007,0.012,-0.019
45873,1.123,-0.275,-9.479,-0.008,0.012,-0.019
45976,1.137,-0.273,-9.467,-0.007,0.012,-0.02
46079,1.137,-0.275,-9.479,-0.007,0.013,-0.02
46182,1.142,-0.287,-9.481,-0.007,0.012,-0.02
46285,1.132,-0.28,-9.483,-0.008,0.012,-0.019
46388,1.125,-0.278,-9.471,-0.007,0.012,-0.019
46491,1.13,-0.287,-9.474,-0.007,0.012,-0.019
46594,1.13,-0.28,-9.462,-0.007,0.012,-0.019
46697,1.118,-0.28,-9.479,-0.007,0.012,-0.019
46800,1.128,-0.278,-9.476,-0.007,0.013,-0.02
46903,1.128,-0.28,-9.476,-0.007,0.012,-0.02
47006,1.135,-0.28,-9.457,-0.008,0.012,-0.02
47109,1.123,-0.285,-9.464,-0.007,0.012,-0.019
47212,1.137,-0.283,-9.464,-0.007,0.012,-0.019
47315,1.13,-0.275,-9.471,-0.007,0.012,-0.02
47418,1.135,-0.275,-9.452,-0.007,0.012,-0.02
47521,1.13,-0.287,-9.464,-0.008,0.012,-0.02
47624,1.135,-0.28,-9.459,-0.007,0.012,-0.019
47727,1.132,-0.28,-9.467,-0.007,0.012,-0.02
47830,1.125,-0.273,-9.474,-0.008,0.012,-0.02
47933,1.135,-0.278,-9.474,-0.007,0.012,-0.019
48036,1.137,-0.278,-9.462,-0.007,0.012,-0.019
48139,1.132,-0.28,-9.462,-0.007,0.012,-0.02
48242,1.13,-0.28,-9.467,-0.008,0.012,-0.019
48345,1.135,-0.271,-9.469,-0.008,0.012,-0.02
48448,1.137,-0.273,-9.467,-0.008,0.012,-0.019
48551,1.132,-0.283,-9.452,-0.008,0.012,-0.02
48654,1.123,-0.278,-9.479,-0.007,0.012,-0.02
48757,1.13,-0.285,-9.474,-0.007,0.012,-0.02
48860,1.132,-0.283,-9.471,-0.008,0.012,-0.019
48963,1.125,-0.285,-9.469,-0.007,0.012,-0.02
49066,1.135,-0.271,-9.469,-0.008,0.012,-0.019
49169,1.135,-0.275,-9.464,-0.007,0.013,-0.019
49272,1.128,-0.28,-9.479,-0.007,0.012,-0.02
49375,1.14,-0.283,-9.481,-0.008,0.012,-0.02
49478,1.13,-0.28,-9.479,-0.008,0.013,-0.02
49581,1.135,-0.266,-9.462,-0.007,0.012,-0.019
49684,1.12,-0.28,-9.467,-0.008,0.012,-0.02
49787,1.132,-0.283,-9.464,-0.007,0.012,-0.019
49890,1.132,-0.29,-9.464,-0.007,0.012,-0.019
49993,1.132,-0.28,-9.464,-0.007,0.012,-0.02
50096,1.135,-0.278,-9.469,-0.007,0.012,-0.019
50199,1.132,-0.285,-9.464,-0.008,0.012,-0.02
50302,1.137,-0.273,-9.452,-0.007,0.012,-0.019
50405,1.132,-0.28,-9.455,-0.008,0.012,-0.02
50508,1.13,-0.283,-9.469,-0.008,0.012,-0.02
50611,1.132,-0.278,-9.457,-0.008,0.012,-0.02
50714,1.128,-0.283,-9.462,-0.007,0.012,-0.019
50817,1.128,-0.278,-9.45,-0.008,0.012,-0.02
50920,1.128,-0.273,-9.457,-0.008,0.012,-0.02
51023,1.128,-0.283,-9.464,-0.007,0.012,-0.02
51126,1.137,-0.28,-9.474,-0.008,0.012,-0.02
51229,1.132,-0.268,-9.455,-0.007,0.013,-0.02
51332,1.135,-0.287,-9.462,-0.007,0.012,-0.02
51435,1.13,-0.283,-9.474,-0.007,0.012,-0.02
51538,1.14,-0.285,-9.452,-0.007,0.012,-0.02
51641,1.137,-0.287,-9.467,-0.007,0.012,-0.02
51744,1.128,-0.278,-9.469,-0.007,0.012,-0.019
51847,1.135,-0.278,-9.469,-0.008,0.011,-0.019
51950,1.128,-0.29,-9.467,-0.007,0.012,-0.02
52053,1.128,-0.287,-9.452,-0.007,0.012,-0.019
52156,1.13,-0.285,-9.462,-0.007,0.012,-0.02
52259,1.135,-0.266,-9.464,-0.008,0.012,-0.02
52362,1.128,-0.285,-9.467,-0.007,0.013,-0.019
52465,1.128,-0.287,-9.469,-0.007,0.013,-0.02
52568,1.125,-0.273,-9.462,-0.007,0.012,-0.02
52671,1.125,-0.278,-9.474,-0.007,0.012,-0.019
52774,1.118,-0.275,-9.457,-0.008,0.012,-0.02
52877,1.135,-0.278,-9.476,-0.008,0.011,-0.019
52980,1.123,-0.278,-9.467,-0.008,0.012,-0.02
53083,1.128,-0.285,-9.467,-0.008,0.013,-0.02
53186,1.132,-0.278,-9.476,-0.008,0.012,-0.02
53289,1.135,-0.275,-9.471,-0.007,0.013,-0.019
53392,1.12,-0.275,-9.483,-0.007,0.012,-0.019
53495,1.125,-0.278,-9.459,-0.007,0.012,-0.02
53598,1.128,-0.285,-9.467,-0.008,0.012,-0.02
53701,1.13,-0.28,-9.474,-0.007,0.012,-0.019
53804,1.128,-0.283,-9.474,-0.007,0.012,-0.019
53907,1.13,-0.278,-9.474,-0.008,0.012,-0.02
54010,1.128,-0.273,-9.476,-0.007,0.012,-0.019
54113,1.12,-0.278,-9.459,-0.007,0.012,-0.02
54216,1.128,-0.271,-9.467,-0.007,0.012,-0.02
54319,1.132,-0.261,-9.457,-0.007,0.012,-0.02
54422,1.135,-0.271,-9.471,-0.008,0.013,-0.02
54525,1.125,-0.283,-9.471,-0.007,0.012,-0.02
54628,1.14,-0.275,-9.474,-0.007,0.012,-0.019
54731,1.13,-0.275,-9.455,-0.007,0.012,-0.02
54834,1.14,-0.285,-9.467,-0.008,0.012,-0.019
54937,1.132,-0.278,-9.467,-0.007,0.012,-0.019
55040,1.125,-0.28,-9.479,-0.007,0.013,-0.02
55143,1.135,-0.278,-9.459,-0.007,0.012,-0.019
55246,1.13,-0.29,-9.471,-0.007,0.012,-0.019
55349,1.135,-0.275,-9.459,-0.007,0.012,-0.02
55452,1.125,-0.278,-9.483,-0.007,0.012,-0.02
55555,1.128,-0.275,-9.481,-0.007,0.012,-0.019
55658,1.13,-0.271,-9.474,-0.007,0.012,-0.02
55761,1.13,-0.278,-9.471,-0.008,0.012,-0.019
55864,1.13,-0.275,-9.467,-0.008,0.013,-0.019
55967,1.125,-0.28,-9.464,-0.007,0.012,-0.02
56070,1.132,-0.273,-9.486,-0.007,0.012,-0.019
56173,1.137,-0.28,-9.455,-0.007,0.012,-0.02
56276,1.118,-0.278,-9.467,-0.007,0.012,-0.02
56379,1.128,-0.285,-9.479,-0.007,0.012,-0.02
56482,1.137,-0.283,-9.474,-0.007,0.012,-0.02
56585,1.137,-0.278,-9.479,-0.008,0.012,-0.02
56688,1.125,-0.28,-9.476,-0.007,0.012,-0.019
56791,1.132,-0.28,-9.459,-0.007,0.012,-0.02
56894,1.13,-0.283,-9.462,-0.007,0.012,-0.019
56997,1.12,-0.273,-9.476,-0.007,0.012,-0.02
57100,1.128,-0.278,-9.474,-0.007,0.012,-0.02
57203,1.135,-0.29,-9.467,-0.007,0.013,-0.02
57306,1.135,-0.278,-9.457,-0.007,0.012,-0.02
57409,1.14,-0.278,-9.462,-0.008,0.012,-0.019
57512,1.125,-0.273,-9.476,-0.007,0.012,-0.02
57615,1.125,-0.285,-9.464,-0.008,0.013,-0.019
57718,1.128,-0.28,-9.491,-0.008,0.013,-0.019
57821,1.13,-0.28,-9.462,-0.007,0.012,-0.019
57924,1.135,-0.271,-9.464,-0.008,0.012,-0.019
58027,1.13,-0.278,-9.464,-0.007,0.012,-0.02
58130,1.135,-0.273,-9.469,-0.007,0.012,-0.019
58233,1.125,-0.28,-9.467,-0.007,0.012,-0.02
58336,1.13,-0.273,-9.457,-0.007,0.012,-0.02
58439,1.135,-0.275,-9.471,-0.007,0.012,-0.02
58542,1.128,-0.278,-9.474,-0.007,0.012,-0.02
58645,1.123,-0.285,-9.467,-0.007,0.013,-0.02
58748,1.12,-0.273,-9.471,-0.007,0.013,-0.02
58851,1.13,-0.283,-9.459,-0.008,0.012,-0.019
58954,1.132,-0.275,-9.455,-0.007,0.012,-0.02
59057,1.132,-0.283,-9.45,-0.007,0.013,-0.02
59160,1.135,-0.278,-9.471,-0.007,0.013,-0.02
59263,1.135,-0.283,-9.469,-0.008,0.012,-0.02
59366,1.132,-0.275,-9.464,-0.007,0.012,-0.02
59469,1.123,-0.278,-9.457,-0.008,0.013,-0.02
59572,1.128,-0.271,-9.467,-0.007,0.012,-0.019
59675,1.13,-0.275,-9.469,-0.007,0.012,-0.019
59778,1.13,-0.273,-9.462,-0.007,0.012,-0.019
59881,1.12,-0.275,-9.464,-0.007,0.013,-0.02
59984,1.132,-0.28,-9.476,-0.007,0.012,-0.02
60087,1.125,-0.285,-9.469,-0.008,0.012,-0.019
60190,1.13,-0.278,-9.467,-0.007,0.012,-0.02
60293,1.128,-0.287,-9.467,-0.007,0.012,-0.02
60396,1.128,-0.278,-9.481,-0.007,0.012,-0.02
60499,1.135,-0.275,-9.469,-0.007,0.012,-0.02
60602,1.125,-0.283,-9.459,-0.007,0.013,-0.02
60705,1.128,-0.28,-9.476,-0.008,0.012,-0.02
60808,1.132,-0.273,-9.481,-0.008,0.012,-0.021
60911,1.132,-0.278,-9.488,-0.007,0.013,-0.02
61014,1.192,-0.278,-9.45,0.009,0.267,-0.021
61117,1.42,-0.302,-9.438,-0.005,0.063,-0.021
61220,1.415,-0.299,-9.419,-0.008,0.014,-0.02
61323,1.408,-0.297,-9.419,-0.007,0.013,-0.019
61426,1.408,-0.297,-9.44,-0.007,0.012,-0.019
61529,1.41,-0.292,-9.419,-0.008,0.013,-0.02
61632,1.422,-0.297,-9.424,-0.007,0.012,-0.02
61735,1.415,-0.297,-9.428,-0.008,0.012,-0.02
61838,1.401,-0.285,-9.421,-0.008,0.012,-0.02
61941,1.417,-0.302,-9.424,-0.007,0.012,-0.02
62044,1.42,-0.299,-9.433,-0.007,0.012,-0.019
62147,1.415,-0.302,-9.428,-0.008,0.012,-0.019
62250,1.413,-0.287,-9.428,-0.007,0.012,-0.02
62353,1.425,-0.306,-9.428,-0.008,0.013,-0.02
62456,1.422,-0.292,-9.421,-0.007,0.012,-0.02
62559,1.415,-0.302,-9.428,-0.007,0.013,-0.02
62662,1.408,-0.302,-9.431,-0.007,0.012,-0.02
62765,1.41,-0.299,-9.412,-0.008,0.012,-0.02
62868,1.41,-0.29,-9.412,-0.007,0.012,-0.02
62971,1.422,-0.292,-9.433,-0.007,0.012,-0.02
63074,1.413,-0.294,-9.419,-0.008,0.012,-0.019
63177,1.41,-0.294,-9.426,-0.007,0.013,-0.02
63280,1.415,-0.304,-9.421,-0.007,0.013,-0.019
63383,1.405,-0.304,-9.433,-0.007,0.013,-0.02
63486,1.42,-0.304,-9.414,-0.007,0.012,-0.02
63589,1.41,-0.304,-9.424,-0.008,0.012,-0.02
63692,1.42,-0.292,-9.424,-0.007,0.012,-0.02
63795,1.415,-0.302,-9.438,-0.008,0.013,-0.019
63898,1.415,-0.29,-9.404,-0.007,0.013,-0.02
64001,1.41,-0.302,-9.414,-0.007,0.012,-0.02
64104,1.422,-0.302,-9.431,-0.007,0.012,-0.02
64207,1.41,-0.292,-9.424,-0.007,0.012,-0.02
64310,1.413,-0.302,-9.433,-0.008,0.012,-0.02
64413,1.417,-0.29,-9.421,-0.007,0.012,-0.02
64516,1.413,-0.302,-9.428,-0.008,0.012,-0.02
64619,1.417,-0.299,-9.431,-0.007,0.012,-0.019
64722,1.41,-0.294,-9.416,-0.007,0.012,-0.019
64825,1.415,-0.294,-9.436,-0.008,0.012,-0.02
64928,1.413,-0.29,-9.433,-0.008,0.012,-0.02
65031,1.408,-0.294,-9.419,-0.007,0.012,-0.02
65134,1.413,-0.292,-9.428,-0.008,0.013,-0.02
65237,1.422,-0.304,-9.421,-0.007,0.012,-0.02
65340,1.415,-0.29,-9.419,-0.007,0.012,-0.019
65443,1.415,-0.299,-9.421,-0.007,0.012,-0.02
65546,1.408,-0.306,-9.44,-0.007,0.012,-0.02
65649,1.405,-0.294,-9.431,-0.008,0.013,-0.02
65752,1.417,-0.287,-9.428,-0.007,0.012,-0.02
65855,1.41,-0.287,-9.404,-0.007,0.012,-0.02
65958,1.413,-0.287,-9.419,-0.007,0.013,-0.02
66061,1.41,-0.304,-9.426,-0.007,0.013,-0.02
66164,1.408,-0.294,-9.436,-0.007,0.011,-0.019
66267,1.41,-0.292,-9.424,-0.007,0.013,-0.019
66370,1.415,-0.302,-9.431,-0.007,0.012,-0.019
66473,1.417,-0.302,-9.426,-0.007,0.013,-0.02
66576,1.415,-0.294,-9.412,-0.007,0.013,-0.021
66679,1.42,-0.299,-9.431,-0.007,0.013,-0.02
66782,1.41,-0.299,-9.433,-0.007,0.012,-0.02
66885,1.415,-0.299,-9.424,-0.007,0.012,-0.019
66988,1.422,-0.302,-9.426,-0.007,0.012,-0.019
67091,1.417,-0.299,-9.438,-0.008,0.012,-0.02
67194,1.408,-0.299,-9.421,-0.008,0.013,-0.02
67297,1.413,-0.292,-9.426,-0.007,0.012,-0.019
67400,1.41,-0.304,-9.436,-0.007,0.012,-0.02
67503,1.415,-0.304,-9.431,-0.007,0.012,-0.019
67606,1.425,-0.302,-9.421,-0.007,0.013,-0.02
67709,1.413,-0.299,-9.421,-0.008,0.012,-0.02
67812,1.405,-0.294,-9.426,-0.007,0.012,-0.02
67915,1.403,-0.294,-9.424,-0.007,0.012,-0.02
68018,1.405,-0.299,-9.431,-0.007,0.012,-0.02
68121,1.413,-0.299,-9.421,-0.007,0.012,-0.019
68224,1.42,-0.297,-9.431,-0.008,0.012,-0.02
68327,1.41,-0.292,-9.436,-0.007,0.012,-0.019
68430,1.41,-0.294,-9.424,-0.007,0.012,-0.02
68533,1.41,-0.297,-9.433,-0.007,0.012,-0.02
68636,1.417,-0.294,-9.419,-0.007,0.012,-0.02
68739,1.405,-0.292,-9.426,-0.008,0.012,-0.019
68842,1.422,-0.297,-9.419,-0.007,0.012,-0.019
68945,1.42,-0.299,-9.433,-0.007,0.013,-0.02
69048,1.41,-0.299,-9.409,-0.007,0.013,-0.02
69151,1.41,-0.294,-9.421,-0.007,0.012,-0.02
69254,1.41,-0.299,-9.431,-0.007,0.012,-0.019
69357,1.415,-0.299,-9.424,-0.007,0.012,-0.02
69460,1.413,-0.304,-9.421,-0.008,0.012,-0.02
69563,1.41,-0.302,-9.421,-0.007,0.013,-0.019
69666,1.417,-0.299,-9.433,-0.007,0.013,-0.02
69769,1.42,-0.29,-9.409,-0.007,0.013,-0.02
69872,1.415,-0.294,-9.409,-0.007,0.012,-0.019
69975,1.415,-0.292,-9.433,-0.008,0.012,-0.019
70078,1.403,-0.294,-9.428,-0.008,0.012,-0.019
70181,1.417,-0.292,-9.419,-0.007,0.013,-0.02
70284,1.417,-0.297,-9.433,-0.008,0.012,-0.02
70387,1.405,-0.292,-9.409,-0.007,0.012,-0.02
70490,1.417,-0.297,-9.428,-0.008,0.012,-0.02
70593,1.415,-0.299,-9.426,-0.008,0.012,-0.02
70696,1.413,-0.304,-9.424,-0.007,0.012,-0.02
70799,1.413,-0.287,-9.443,-0.007,0.013,-0.019
70902,1.408,-0.294,-9.424,-0.007,0.012,-0.019
71005,1.415,-0.302,-9.424,-0.008,0.012,-0.02
71108,1.408,-0.306,-9.416,-0.008,0.012,-0.019
71211,1.41,-0.299,-9.421,-0.007,0.012,-0.02
71314,1.408,-0.302,-9.421,-0.007,0.012,-0.02
71417,1.415,-0.297,-9.414,-0.007,0.012,-0.019
71520,1.41,-0.297,-9.407,-0.008,0.011,-0.019
71623,1.42,-0.294,-9.419,-0.007,0.012,-0.019
71726,1.413,-0.292,-9.438,-0.007,0.012,-0.02
71829,1.415,-0.306,-9.428,-0.007,0.013,-0.02
71932,1.408,-0.302,-9.414,-0.008,0.012,-0.019
72035,1.42,-0.302,-9.431,-0.008,0.013,-0.02
72138,1.415,-0.299,-9.443,-0.007,0.012,-0.019
72241,1.413,-0.297,-9.431,-0.007,0.012,-0.02
72344,1.415,-0.297,-9.426,-0.007,0.013,-0.02
72447,1.413,-0.294,-9.421,-0.007,0.013,-0.02
72550,1.413,-0.292,-9.419,-0.007,0.011,-0.02
72653,1.413,-0.299,-9.409,-0.008,0.012,-0.02
72756,1.417,-0.294,-9.424,-0.007,0.012,-0.02
72859,1.41,-0.294,-9.424,-0.007,0.012,-0.02
72962,1.408,-0.304,-9.438,-0.007,0.012,-0.02
73065,1.417,-0.287,-9.428,-0.007,0.012,-0.02
73168,1.415,-0.302,-9.426,-0.007,0.012,-0.02
73271,1.413,-0.297,-9.416,-0.007,0.012,-0.02
73374,1.42,-0.294,-9.416,-0.007,0.013,-0.019
73477,1.422,-0.294,-9.416,-0.007,0.012,-0.02
73580,1.405,-0.292,-9.419,-0.007,0.012,-0.019
73683,1.432,-0.297,-9.426,-0.008,0.012,-0.02
73786,1.413,-0.304,-9.409,-0.007,0.012,-0.02
73889,1.415,-0.299,-9.421,-0.008,0.012,-0.02
73992,1.41,-0.304,-9.421,-0.007,0.012,-0.02
74095,1.403,-0.294,-9.424,-0.007,0.012,-0.02
74198,1.415,-0.297,-9.433,-0.007,0.012,-0.02
74301,1.417,-0.294,-9.409,-0.007,0.012,-0.02
74404,1.415,-0.292,-9.426,-0.007,0.012,-0.02
74507,1.405,-0.306,-9.407,-0.007,0.012,-0.02
74610,1.415,-0.299,-9.421,-0.008,0.013,-0.02
74713,1.415,-0.304,-9.407,-0.007,0.012,-0.02
74816,1.417,-0.287,-9.426,-0.007,0.012,-0.019
74919,1.413,-0.283,-9.419,-0.008,0.012,-0.02
75022,1.415,-0.304,-9.426,-0.007,0.012,-0.02
75125,1.408,-0.297,-9.421,-0.007,0.012,-0.02
75228,1.408,-0.294,-9.412,-0.007,0.012,-0.019
75331,1.422,-0.306,-9.424,-0.007,0.012,-0.019
75434,1.41,-0.304,-9.419,-0.007,0.012,-0.019
75537,1.415,-0.302,-9.428,-0.007,0.012,-0.019
75640,1.41,-0.294,-9.436,-0.007,0.013,-0.019
75743,1.41,-0.297,-9.424,-0.008,0.012,-0.02
75846,1.405,-0.302,-9.421,-0.007,0.013,-0.02
75949,1.42,-0.292,-9.426,-0.007,0.013,-0.02
76052,1.413,-0.297,-9.424,-0.008,0.012,-0.02
76155,1.408,-0.299,-9.428,-0.008,0.012,-0.02
76258,1.415,-0.302,-9.424,-0.008,0.013,-0.02
76361,1.413,-0.292,-9.412,-0.007,0.013,-0.02
76464,1.405,-0.29,-9.428,-0.007,0.013,-0.02
76567,1.42,-0.302,-9.419,-0.007,0.012,-0.02
76670,1.42,-0.302,-9.428,-0.007,0.012,-0.019
76773,1.403,-0.297,-9.424,-0.007,0.012,-0.02
76876,1.41,-0.302,-9.421,-0.007,0.012,-0.02
76979,1.413,-0.299,-9.409,-0.007,0.012,-0.02
77082,1.403,-0.299,-9.416,-0.007,0.012,-0.019
77185,1.42,-0.297,-9.424,-0.007,0.012,-0.02
77288,1.417,-0.304,-9.426,-0.008,0.012,-0.02
77391,1.415,-0.297,-9.428,-0.007,0.012,-0.02
77494,1.422,-0.29,-9.419,-0.007,0.012,-0.02
77597,1.417,-0.285,-9.426,-0.007,0.013,-0.02
77700,1.429,-0.306,-9.419,-0.008,0.012,-0.019
77803,1.41,-0.297,-9.428,-0.007,0.012,-0.02
77906,1.415,-0.292,-9.433,-0.007,0.012,-0.02
78009,1.415,-0.302,-9.426,-0.007,0.012,-0.02
78112,1.425,-0.302,-9.419,-0.007,0.012,-0.02
78215,1.408,-0.304,-9.424,-0.007,0.013,-0.02
78318,1.415,-0.302,-9.431,-0.007,0.012,-0.019
78421,1.41,-0.292,-9.436,-0.007,0.013,-0.02
78524,1.425,-0.306,-9.436,-0.007,0.013,-0.02
78627,1.415,-0.294,-9.44,-0.007,0.012,-0.019
78730,1.408,-0.299,-9.407,-0.008,0.012,-0.02
78833,1.405,-0.299,-9.409,-0.007,0.013,-0.02
78936,1.422,-0.306,-9.419,-0.007,0.012,-0.02
79039,1.415,-0.294,-9.433,-0.007,0.012,-0.02
79142,1.393,-0.309,-9.397,-0.008,0.012,-0.02
79245,1.41,-0.306,-9.428,-0.008,0.012,-0.02
79348,1.427,-0.306,-9.412,-0.007,0.013,-0.02
79451,1.415,-0.297,-9.44,-0.007,0.013,-0.019
79554,1.415,-0.311,-9.421,-0.007,0.012,-0.019
79657,1.42,-0.302,-9.412,-0.007,0.012,-0.02
79760,1.417,-0.297,-9.424,-0.007,0.012,-0.02
79863,1.413,-0.302,-9.428,-0.007,0.012,-0.019
79966,1.413,-0.302,-9.426,-0.008,0.013,-0.02
80069,1.417,-0.292,-9.419,-0.007,0.012,-0.02
80172,1.422,-0.294,-9.412,-0.007,0.012,-0.02
80275,1.42,-0.292,-9.436,-0.007,0.012,-0.02
80378,1.41,-0.306,-9.416,-0.007,0.012,-0.02
80481,1.429,-0.299,-9.416,-0.007,0.012,-0.02
80584,1.417,-0.297,-9.426,-0.007,0.013,-0.02
80687,1.417,-0.297,-9.431,-0.008,0.012,-0.02
80790,1.42,-0.299,-9.412,-0.007,0.013,-0.02
80893,1.417,-0.297,-9.409,-0.007,0.012,-0.019
80996,1.422,-0.309,-9.424,-0.008,0.012,-0.02
81099,1.42,-0.302,-9.416,-0.007,0.012,-0.02
81202,1.415,-0.299,-9.424,-0.007,0.012,-0.02
81305,1.417,-0.299,-9.419,-0.008,0.012,-0.019
81408,1.42,-0.304,-9.414,-0.007,0.012,-0.02
81511,1.417,-0.292,-9.424,-0.007,0.012,-0.019
81614,1.415,-0.297,-9.416,-0.007,0.012,-0.019
81717,1.415,-0.29,-9.424,-0.007,0.012,-0.019
81820,1.417,-0.29,-9.431,-0.007,0.012,-0.019
81923,1.42,-0.306,-9.428,-0.008,0.012,-0.02
82026,1.42,-0.297,-9.431,-0.007,0.012,-0.019
82129,1.415,-0.29,-9.421,-0.007,0.012,-0.02
82232,1.42,-0.302,-9.424,-0.007,0.012,-0.02
82335,1.417,-0.302,-9.433,-0.007,0.012,-0.02
82438,1.408,-0.294,-9.426,-0.008,0.012,-0.02
82541,1.429,-0.302,-9.426,-0.008,0.012,-0.019
82644,1.422,-0.302,-9.414,-0.007,0.013,-0.02
82747,1.42,-0.311,-9.419,-0.007,0.012,-0.02
82850,1.415,-0.294,-9.414,-0.008,0.012,-0.02
82953,1.41,-0.292,-9.421,-0.007,0.012,-0.019
83056,1.41,-0.302,-9.412,-0.007,0.012,-0.02
83159,1.413,-0.297,-9.421,-0.007,0.012,-0.02
83262,1.427,-0.302,-9.419,-0.008,0.012,-0.019
83365,1.42,-0.297,-9.431,-0.007,0.012,-0.019
83468,1.413,-0.287,-9.421,-0.007,0.012,-0.02
83571,1.417,-0.302,-9.428,-0.007,0.013,-0.02
83674,1.42,-0.302,-9.426,-0.007,0.012,-0.02
83777,1.413,-0.302,-9.428,-0.007,0.012,-0.02
83880,1.415,-0.297,-9.407,-0.007,0.012,-0.02
83983,1.42,-0.294,-9.421,-0.007,0.012,-0.02
84086,1.398,-0.302,-9.416,-0.007,0.013,-0.02
84189,1.41,-0.297,-9.424,-0.007,0.012,-0.02
84292,1.401,-0.292,-9.409,-0.007,0.012,-0.019
84395,1.413,-0.292,-9.428,-0.007,0.012,-0.019
84498,1.417,-0.297,-9.421,-0.007,0.012,-0.02
84601,1.422,-0.304,-9.407,-0.007,0.012,-0.019
84704,1.413,-0.304,-9.419,-0.007,0.012,-0.019
84807,1.413,-0.294,-9.421,-0.007,0.012,-0.019
84910,1.42,-0.299,-9.412,-0.007,0.012,-0.02
85013,1.417,-0.302,-9.414,-0.008,0.012,-0.02
85116,1.415,-0.304,-9.424,-0.007,0.012,-0.02
85219,1.417,-0.287,-9.424,-0.007,0.012,-0.019
85322,1.396,-0.302,-9.431,-0.007,0.012,-0.02
85425,1.415,-0.299,-9.416,-0.008,0.012,-0.02
85528,1.408,-0.299,-9.424,-0.007,0.012,-0.019
85631,1.408,-0.304,-9.424,-0.008,0.012,-0.019
85734,1.41,-0.294,-9.421,-0.007,0.012,-0.02
85837,1.413,-0.299,-9.424,-0.007,0.012,-0.019
85940,1.415,-0.302,-9.426,-0.007,0.012,-0.02
86043,1.408,-0.294,-9.416,-0.007,0.012,-0.019
86146,1.413,-0.299,-9.416,-0.007,0.012,-0.02
86249,1.427,-0.294,-9.428,-0.007,0.012,-0.02
86352,1.408,-0.287,-9.419,-0.008,0.012,-0.02
86455,1.408,-0.302,-9.428,-0.007,0.013,-0.02
86558,1.432,-0.306,-9.424,-0.007,0.012,-0.02
86661,1.425,-0.302,-9.426,-0.007,0.012,-0.019
86764,1.413,-0.292,-9.407,-0.008,0.012,-0.02
86867,1.41,-0.294,-9.431,-0.007,0.012,-0.02
86970,1.41,-0.304,-9.416,-0.007,0.012,-0.02
87073,1.413,-0.302,-9.436,-0.007,0.012,-0.02
87176,1.41,-0.302,-9.424,-0.008,0.013,-0.019
87279,1.413,-0.297,-9.424,-0.007,0.012,-0.02
87382,1.413,-0.297,-9.419,-0.007,0.012,-0.019
87485,1.417,-0.297,-9.404,-0.007,0.013,-0.019
87588,1.417,-0.294,-9.431,-0.007,0.012,-0.019
87691,1.417,-0.294,-9.426,-0.007,0.011,-0.02
87794,1.413,-0.306,-9.438,-0.008,0.012,-0.02
87897,1.417,-0.294,-9.414,-0.007,0.012,-0.019
88000,1.41,-0.299,-9.426,-0.008,0.012,-0.02
88103,1.415,-0.304,-9.431,-0.007,0.012,-0.02
88206,1.425,-0.299,-9.431,-0.007,0.012,-0.02
88309,1.41,-0.302,-9.421,-0.007,0.012,-0.02
88412,1.405,-0.302,-9.414,-0.008,0.012,-0.02
88515,1.417,-0.299,-9.431,-0.007,0.012,-0.02
88618,1.415,-0.304,-9.419,-0.008,0.011,-0.019
88721,1.417,-0.299,-9.426,-0.007,0.012,-0.02
88824,1.42,-0.294,-9.424,-0.007,0.012,-0.019
88927,1.425,-0.304,-9.426,-0.007,0.012,-0.02
89030,1.415,-0.292,-9.426,-0.007,0.012,-0.019
89133,1.415,-0.297,-9.419,-0.007,0.012,-0.019
89236,1.413,-0.306,-9.424,-0.007,0.012,-0.019
89339,1.422,-0.299,-9.419,-0.007,0.012,-0.019
89442,1.408,-0.302,-9.421,-0.008,0.012,-0.02
89545,1.403,-0.299,-9.424,-0.007,0.012,-0.02
89648,1.41,-0.311,-9.426,-0.007,0.012,-0.02
89751,1.413,-0.314,-9.412,-0.007,0.013,-0.02
89854,1.413,-0.302,-9.424,-0.007,0.012,-0.019
89957,1.408,-0.302,-9.416,-0.007,0.012,-0.02
90060,1.415,-0.294,-9.424,-0.007,0.012,-0.019
90163,1.417,-0.292,-9.419,-0.007,0.012,-0.019
90266,1.425,-0.304,-9.414,-0.007,0.012,-0.02
90369,1.415,-0.297,-9.414,-0.007,0.012,-0.02
90472,1.413,-0.299,-9.416,-0.007,0.012,-0.02
90575,1.422,-0.297,-9.412,-0.008,0.012,-0.02
90678,1.422,-0.297,-9.419,-0.007,0.012,-0.019
90781,1.415,-0.299,-9.416,-0.007,0.012,-0.02
90884,1.403,-0.306,-9.431,-0.007,0.012,-0.02
90987,1.415,-0.297,-9.409,-0.007,0.012,-0.02
91090,1.422,-0.297,-9.416,-0.008,0.012,-0.02
91193,1.422,-0.299,-9.424,-0.007,0.012,-0.02
91296,1.417,-0.309,-9.419,-0.007,0.012,-0.019
91399,1.41,-0.302,-9.412,-0.008,0.011,-0.019
91502,1.42,-0.311,-9.412,-0.007,0.012,-0.02
91605,1.415,-0.297,-9.414,-0.007,0.012,-0.02
91708,1.415,-0.299,-9.404,-0.007,0.012,-0.02
91811,1.42,-0.297,-9.419,-0.007,0.012,-0.02
91914,1.415,-0.306,-9.433,-0.007,0.012,-0.019
92017,1.403,-0.299,-9.419,-0.007,0.012,-0.02
92120,1.403,-0.292,-9.428,-0.007,0.012,-0.02
92223,1.403,-0.292,-9.424,-0.008,0.013,-0.019
92326,1.415,-0.306,-9.421,-0.007,0.012,-0.019
92429,1.417,-0.297,-9.412,-0.007,0.012,-0.02
92532,1.413,-0.306,-9.412,-0.007,0.012,-0.02
92635,1.42,-0.283,-9.426,-0.008,0.011,-0.02
92738,1.405,-0.292,-9.424,-0.007,0.012,-0.02
92841,1.417,-0.294,-9.421,-0.007,0.012,-0.02
92944,1.41,-0.299,-9.426,-0.008,0.012,-0.02
93047,1.403,-0.297,-9.419,-0.007,0.012,-0.02
93150,1.408,-0.292,-9.424,-0.007,0.012,-0.02
93253,1.401,-0.297,-9.416,-0.007,0.012,-0.019
93356,1.403,-0.292,-9.419,-0.008,0.012,-0.019
93459,1.41,-0.29,-9.431,-0.007,0.012,-0.019
93562,1.417,-0.292,-9.421,-0.007,0.012,-0.02
93665,1.41,-0.299,-9.4,-0.007,0.012,-0.019
93768,1.422,-0.309,-9.402,-0.008,0.012,-0.02
93871,1.405,-0.294,-9.431,-0.008,0.012,-0.02
93974,1.415,-0.294,-9.431,-0.007,0.013,-0.019
94077,1.408,-0.29,-9.416,-0.007,0.012,-0.02
94180,1.41,-0.292,-9.412,-0.007,0.012,-0.02
94283,1.422,-0.304,-9.404,-0.007,0.012,-0.02
94386,1.422,-0.297,-9.414,-0.008,0.012,-0.02
94489,1.405,-0.304,-9.407,-0.008,0.012,-0.02
94592,1.41,-0.29,-9.414,-0.008,0.012,-0.019
94695,1.422,-0.299,-9.438,-0.008,0.012,-0.02
94798,1.417,-0.299,-9.421,-0.007,0.012,-0.019
94901,1.408,-0.294,-9.424,-0.008,0.012,-0.02
95004,1.413,-0.294,-9.414,-0.007,0.012,-0.02
95107,1.405,-0.302,-9.409,-0.007,0.013,-0.02
95210,1.413,-0.29,-9.421,-0.007,0.012,-0.02
95313,1.417,-0.297,-9.419,-0.007,0.012,-0.02
95416,1.417,-0.302,-9.424,-0.007,0.013,-0.019
95519,1.413,-0.292,-9.416,-0.007,0.012,-0.019
95622,1.413,-0.309,-9.416,-0.007,0.012,-0.02
95725,1.408,-0.306,-9.404,-0.007,0.013,-0.019
95828,1.41,-0.294,-9.412,-0.008,0.012,-0.02
95931,1.413,-0.304,-9.419,-0.007,0.012,-0.02
96034,1.413,-0.304,-9.416,-0.007,0.012,-0.02
96137,1.425,-0.297,-9.424,-0.007,0.012,-0.02
96240,1.413,-0.297,-9.407,-0.008,0.012,-0.02
96343,1.413,-0.294,-9.407,-0.007,0.012,-0.019
96446,1.42,-0.299,-9.402,-0.007,0.012,-0.02
96549,1.413,-0.304,-9.426,-0.008,0.012,-0.02
96652,1.415,-0.302,-9.404,-0.007,0.012,-0.02
96755,1.413,-0.294,-9.428,-0.007,0.012,-0.019
96858,1.41,-0.304,-9.416,-0.007,0.012,-0.019
96961,1.415,-0.304,-9.414,-0.007,0.012,-0.02
97064,1.408,-0.299,-9.419,-0.007,0.012,-0.02
97167,1.425,-0.302,-9.419,-0.007,0.012,-0.02
97270,1.413,-0.29,-9.404,-0.007,0.012,-0.02
97373,1.408,-0.294,-9.431,-0.007,0.013,-0.02
97476,1.413,-0.297,-9.426,-0.007,0.013,-0.019
97579,1.417,-0.292,-9.426,-0.007,0.012,-0.02
97682,1.413,-0.306,-9.428,-0.007,0.012,-0.019
97785,1.42,-0.302,-9.419,-0.008,0.013,-0.02
97888,1.415,-0.299,-9.404,-0.007,0.012,-0.019
97991,1.42,-0.294,-9.414,-0.007,0.013,-0.019
98094,1.425,-0.302,-9.407,-0.007,0.012,-0.02
98197,1.413,-0.304,-9.412,-0.007,0.012,-0.02
98300,1.422,-0.302,-9.428,-0.007,0.012,-0.02
98403,1.413,-0.299,-9.421,-0.007,0.012,-0.02
98506,1.429,-0.304,-9.426,-0.007,0.012,-0.019
98609,1.413,-0.299,-9.419,-0.007,0.012,-0.02
98712,1.42,-0.299,-9.414,-0.007,0.012,-0.02
98815,1.425,-0.292,-9.426,-0.007,0.012,-0.02
98918,1.413,-0.306,-9.438,-0.007,0.012,-0.02
99021,1.422,-0.304,-9.412,-0.007,0.012,-0.02
99124,1.425,-0.302,-9.428,-0.007,0.012,-0.02
99227,1.408,-0.304,-9.416,-0.007,0.013,-0.019
99330,1.41,-0.302,-9.433,-0.007,0.012,-0.02
99433,1.417,-0.292,-9.419,-0.007,0.011,-0.02
99536,1.413,-0.302,-9.409,-0.007,0.013,-0.019
99639,1.417,-0.297,-9.414,-0.007,0.012,-0.02
99742,1.41,-0.306,-9.424,-0.007,0.012,-0.019
99845,1.422,-0.292,-9.421,-0.007,0.012,-0.019
99948,1.408,-0.294,-9.431,-0.008,0.011,-0.02
100051,1.413,-0.306,-9.44,-0.007,0.013,-0.019
100154,1.417,-0.297,-9.404,-0.007,0.012,-0.02
100257,1.427,-0.297,-9.412,-0.007,0.011,-0.019
100360,1.415,-0.294,-9.416,-0.008,0.012,-0.02
100463,1.415,-0.304,-9.419,-0.007,0.012,-0.02
100566,1.422,-0.306,-9.414,-0.007,0.012,-0.02
100669,1.405,-0.309,-9.407,-0.007,0.013,-0.02
100772,1.41,-0.297,-9.419,-0.007,0.012,-0.02
100875,1.417,-0.306,-9.419,-0.008,0.012,-0.02
100978,1.305,-0.287,-9.385,-0.002,0.098,-0.019
101081,1.657,-0.299,-9.388,0.002,0.187,-0.022
101184,1.69,-0.314,-9.373,-0.006,0.022,-0.02
101287,1.681,-0.309,-9.361,-0.007,0.013,-0.019
101390,1.686,-0.314,-9.361,-0.008,0.012,-0.02
101493,1.688,-0.321,-9.371,-0.007,0.012,-0.019
101596,1.686,-0.318,-9.366,-0.008,0.012,-0.02
101699,1.686,-0.302,-9.361,-0.007,0.012,-0.02
101802,1.686,-0.323,-9.366,-0.007,0.013,-0.02
101905,1.686,-0.314,-9.373,-0.007,0.012,-0.02
102008,1.678,-0.318,-9.364,-0.007,0.012,-0.02
102111,1.676,-0.314,-9.369,-0.007,0.013,-0.02
102214,1.688,-0.311,-9.361,-0.007,0.012,-0.019
102317,1.683,-0.302,-9.369,-0.007,0.012,-0.019
102420,1.688,-0.311,-9.376,-0.007,0.012,-0.019
102523,1.686,-0.311,-9.383,-0.007,0.012,-0.02
102626,1.678,-0.314,-9.373,-0.007,0.012,-0.02
102729,1.693,-0.311,-9.373,-0.007,0.012,-0.019
102832,1.69,-0.306,-9.366,-0.007,0.012,-0.02
102935,1.69,-0.316,-9.378,-0.007,0.012,-0.02
103038,1.683,-0.314,-9.378,-0.007,0.012,-0.02
103141,1.695,-0.314,-9.38,-0.007,0.012,-0.02
103244,1.678,-0.314,-9.361,-0.008,0.011,-0.02
103347,1.683,-0.321,-9.38,-0.007,0.012,-0.02
103450,1.681,-0.314,-9.366,-0.007,0.012,-0.02
103553,1.678,-0.309,-9.38,-0.007,0.012,-0.02
103656,1.688,-0.311,-9.38,-0.007,0.012,-0.02
103759,1.686,-0.299,-9.364,-0.007,0.012,-0.02
103862,1.683,-0.328,-9.369,-0.007,0.012,-0.019
103965,1.669,-0.323,-9.371,-0.007,0.012,-0.02
104068,1.686,-0.311,-9.378,-0.007,0.013,-0.02
104171,1.678,-0.316,-9.385,-0.007,0.013,-0.02
104274,1.683,-0.316,-9.364,-0.007,0.012,-0.02
104377,1.693,-0.318,-9.369,-0.007,0.012,-0.019
104480,1.688,-0.321,-9.364,-0.007,0.012,-0.02
104583,1.681,-0.309,-9.38,-0.007,0.012,-0.019
104686,1.678,-0.326,-9.373,-0.008,0.012,-0.02
104789,1.69,-0.318,-9.38,-0.007,0.012,-0.019
104892,1.688,-0.306,-9.352,-0.007,0.013,-0.02
104995,1.686,-0.311,-9.364,-0.007,0.013,-0.02
105098,1.681,-0.316,-9.369,-0.007,0.012,-0.019
105201,1.683,-0.309,-9.371,-0.007,0.012,-0.021
105304,1.693,-0.306,-9.369,-0.007,0.012,-0.02
105407,1.688,-0.311,-9.371,-0.006,0.012,-0.019
105510,1.686,-0.316,-9.364,-0.007,0.012,-0.02
105613,1.688,-0.302,-9.366,-0.007,0.012,-0.02
105716,1.693,-0.309,-9.357,-0.007,0.012,-0.02
105819,1.683,-0.318,-9.361,-0.007,0.012,-0.019
105922,1.681,-0.316,-9.373,-0.007,0.012,-0.019
106025,1.678,-0.316,-9.373,-0.007,0.012,-0.02
106128,1.688,-0.316,-9.369,-0.007,0.012,-0.02
106231,1.688,-0.311,-9.383,-0.007,0.011,-0.019
106334,1.686,-0.318,-9.373,-0.007,0.012,-0.02
106437,1.686,-0.309,-9.366,-0.007,0.012,-0.019
106540,1.695,-0.323,-9.364,-0.007,0.013,-0.02
106643,1.686,-0.318,-9.361,-0.007,0.012,-0.02
106746,1.683,-0.304,-9.364,-0.007,0.012,-0.02
106849,1.686,-0.316,-9.371,-0.007,0.012,-0.019
106952,1.688,-0.304,-9.373,-0.007,0.012,-0.019
107055,1.674,-0.306,-9.369,-0.007,0.012,-0.019
107158,1.693,-0.316,-9.366,-0.007,0.013,-0.019
107261,1.688,-0.314,-9.38,-0.007,0.012,-0.019
107364,1.686,-0.326,-9.366,-0.007,0.012,-0.02
107467,1.678,-0.321,-9.376,-0.007,0.012,-0.019
107570,1.681,-0.306,-9.366,-0.007,0.012,-0.02
107673,1.678,-0.314,-9.366,-0.007,0.012,-0.02
107776,1.678,-0.318,-9.378,-0.007,0.012,-0.02
107879,1.683,-0.309,-9.361,-0.007,0.012,-0.02
107982,1.686,-0.309,-9.354,-0.008,0.012,-0.02
108085,1.683,-0.316,-9.361,-0.007,0.012,-0.02
108188,1.681,-0.316,-9.378,-0.007,0.013,-0.019
108291,1.678,-0.314,-9.373,-0.007,0.012,-0.02
108394,1.678,-0.314,-9.38,-0.007,0.012,-0.02
108497,1.683,-0.326,-9.371,-0.007,0.012,-0.02
108600,1.678,-0.326,-9.369,-0.008,0.012,-0.02
108703,1.693,-0.311,-9.395,-0.007,0.012,-0.019
108806,1.678,-0.309,-9.369,-0.007,0.012,-0.02
108909,1.688,-0.314,-9.371,-0.007,0.012,-0.019
109012,1.683,-0.311,-9.376,-0.007,0.011,-0.019
109115,1.683,-0.311,-9.364,-0.007,0.012,-0.02
109218,1.683,-0.311,-9.369,-0.007,0.012,-0.02
109321,1.693,-0.311,-9.369,-0.007,0.013,-0.019
109424,1.683,-0.311,-9.369,-0.007,0.012,-0.02
109527,1.683,-0.302,-9.373,-0.007,0.012,-0.02
109630,1.683,-0.316,-9.364,-0.007,0.012,-0.019
109733,1.695,-0.321,-9.376,-0.007,0.012,-0.02
109836,1.688,-0.314,-9.369,-0.007,0.013,-0.019
109939,1.681,-0.321,-9.373,-0.007,0.012,-0.019
110042,1.686,-0.314,-9.376,-0.007,0.012,-0.02
110145,1.69,-0.309,-9.373,-0.007,0.012,-0.02
110248,1.676,-0.316,-9.357,-0.007,0.012,-0.019
110351,1.688,-0.306,-9.371,-0.007,0.012,-0.02
110454,1.674,-0.316,-9.376,-0.007,0.012,-0.02
110557,1.681,-0.314,-9.383,-0.007,0.011,-0.02
110660,1.693,-0.306,-9.371,-0.007,0.012,-0.019
110763,1.683,-0.309,-9.364,-0.007,0.013,-0.019
110866,1.676,-0.316,-9.366,-0.007,0.012,-0.019
110969,1.688,-0.321,-9.364,-0.007,0.013,-0.02
111072,1.69,-0.309,-9.369,-0.007,0.012,-0.02
111175,1.674,-0.311,-9.38,-0.007,0.013,-0.02
111278,1.683,-0.321,-9.361,-0.007,0.012,-0.02
111381,1.688,-0.321,-9.373,-0.007,0.012,-0.019
111484,1.683,-0.311,-9.378,-0.007,0.012,-0.019
111587,1.686,-0.306,-9.359,-0.007,0.012,-0.02
111690,1.681,-0.318,-9.38,-0.008,0.012,-0.02
111793,1.688,-0.316,-9.378,-0.008,0.012,-0.02
111896,1.69,-0.316,-9.366,-0.007,0.011,-0.02
111999,1.683,-0.311,-9.364,-0.008,0.012,-0.02
112102,1.686,-0.314,-9.383,-0.007,0.012,-0.02
112205,1.678,-0.321,-9.376,-0.007,0.012,-0.02
112308,1.69,-0.311,-9.38,-0.007,0.011,-0.02
112411,1.695,-0.314,-9.378,-0.007,0.013,-0.019
112514,1.69,-0.316,-9.369,-0.008,0.012,-0.019
112617,1.697,-0.304,-9.371,-0.007,0.012,-0.019
112720,1.686,-0.321,-9.369,-0.007,0.012,-0.02
112823,1.678,-0.311,-9.364,-0.007,0.012,-0.019
112926,1.695,-0.314,-9.376,-0.007,0.012,-0.02
113029,1.681,-0.311,-9.354,-0.007,0.012,-0.019
113132,1.681,-0.309,-9.373,-0.007,0.013,-0.019
113235,1.683,-0.321,-9.364,-0.007,0.012,-0.02
113338,1.686,-0.311,-9.376,-0.007,0.012,-0.02
113441,1.681,-0.321,-9.376,-0.007,0.012,-0.02
113544,1.686,-0.316,-9.38,-0.007,0.013,-0.02
113647,1.686,-0.299,-9.369,-0.007,0.013,-0.02
113750,1.683,-0.314,-9.378,-0.007,0.012,-0.019
113853,1.681,-0.311,-9.352,-0.007,0.012,-0.02
113956,1.676,-0.316,-9.366,-0.007,0.012,-0.02
114059,1.688,-0.314,-9.354,-0.007,0.012,-0.02
114162,1.693,-0.311,-9.376,-0.008,0.011,-0.019
114265,1.678,-0.314,-9.373,-0.007,0.012,-0.02
114368,1.681,-0.318,-9.357,-0.007,0.013,-0.02
114471,1.681,-0.318,-9.359,-0.007,0.012,-0.02
114574,1.678,-0.314,-9.376,-0.007,0.012,-0.02
114677,1.697,-0.311,-9.388,-0.007,0.012,-0.019
114780,1.678,-0.314,-9.38,-0.007,0.012,-0.02
114883,1.688,-0.316,-9.357,-0.007,0.013,-0.02
114986,1.688,-0.306,-9.39,-0.007,0.012,-0.019
115089,1.681,-0.316,-9.376,-0.007,0.012,-0.02
115192,1.681,-0.311,-9.373,-0.007,0.012,-0.019
115295,1.681,-0.309,-9.357,-0.007,0.012,-0.019
115398,1.69,-0.321,-9.371,-0.007,0.013,-0.02
115501,1.681,-0.328,-9.361,-0.007,0.012,-0.019
115604,1.681,-0.314,-9.376,-0.007,0.012,-0.02
115707,1.695,-0.311,-9.366,-0.007,0.012,-0.019
115810,1.686,-0.316,-9.357,-0.007,0.012,-0.02
115913,1.676,-0.299,-9.385,-0.007,0.012,-0.019
116016,1.686,-0.316,-9.373,-0.007,0.012,-0.019
116119,1.681,-0.314,-9.369,-0.008,0.012,-0.02
116222,1.688,-0.311,-9.364,-0.007,0.013,-0.019
116325,1.683,-0.316,-9.364,-0.008,0.012,-0.019
116428,1.688,-0.314,-9.371,-0.008,0.012,-0.02
116531,1.678,-0.311,-9.371,-0.007,0.013,-0.019
116634,1.683,-0.309,-9.373,-0.007,0.012,-0.02
116737,1.674,-0.321,-9.349,-0.007,0.012,-0.019
116840,1.683,-0.316,-9.357,-0.007,0.013,-0.02
116943,1.681,-0.318,-9.371,-0.007,0.012,-0.019
117046,1.683,-0.316,-9.352,-0.007,0.012,-0.02
117149,1.688,-0.304,-9.357,-0.007,0.012,-0.02
117252,1.678,-0.316,-9.373,-0.007,0.012,-0.019
117355,1.686,-0.311,-9.366,-0.007,0.012,-0.02
117458,1.676,-0.311,-9.373,-0.007,0.012,-0.02
117561,1.678,-0.302,-9.373,-0.008,0.012,-0.02
117664,1.683,-0.321,-9.369,-0.007,0.012,-0.02
117767,1.686,-0.314,-9.366,-0.007,0.012,-0.019
117870,1.686,-0.321,-9.369,-0.007,0.012,-0.019
117973,1.686,-0.321,-9.371,-0.007,0.012,-0.019
118076,1.697,-0.314,-9.366,-0.007,0.012,-0.02
118179,1.681,-0.311,-9.371,-0.007,0.012,-0.02
118282,1.678,-0.314,-9.376,-0.007,0.012,-0.02
118385,1.688,-0.314,-9.364,-0.008,0.013,-0.019
118488,1.686,-0.318,-9.369,-0.007,0.013,-0.02
118591,1.678,-0.321,-9.361,-0.007,0.012,-0.02
118694,1.688,-0.314,-9.371,-0.007,0.013,-0.02
118797,1.683,-0.306,-9.369,-0.007,0.013,-0.02
118900,1.686,-0.318,-9.371,-0.007,0.012,-0.02
119003,1.676,-0.314,-9.371,-0.007,0.012,-0.02
119106,1.695,-0.309,-9.371,-0.007,0.012,-0.02
119209,1.688,-0.333,-9.369,-0.008,0.012,-0.02
119312,1.681,-0.309,-9.373,-0.007,0.013,-0.02
119415,1.697,-0.314,-9.373,-0.007,0.013,-0.019
119518,1.686,-0.314,-9.373,-0.007,0.012,-0.02
119621,1.686,-0.314,-9.361,-0.007,0.012,-0.02
119724,1.688,-0.314,-9.366,-0.007,0.012,-0.02
119827,1.678,-0.316,-9.369,-0.007,0.012,-0.019
119930,1.69,-0.309,-9.376,-0.007,0.012,-0.019
120033,1.686,-0.314,-9.366,-0.007,0.012,-0.02
120136,1.686,-0.311,-9.369,-0.007,0.013,-0.02
120239,1.681,-0.311,-9.366,-0.007,0.013,-0.02
120342,1.678,-0.321,-9.361,-0.007,0.012,-0.02
120445,1.676,-0.316,-9.361,-0.007,0.012,-0.02
120548,1.681,-0.309,-9.359,-0.007,0.012,-0.02
120651,1.686,-0.309,-9.369,-0.007,0.012,-0.02
120754,1.693,-0.318,-9.376,-0.007,0.013,-0.02
120857,1.69,-0.316,-9.369,-0.007,0.012,-0.019
120960,1.686,-0.314,-9.359,-0.007,0.012,-0.019
121063,1.683,-0.306,-9.357,-0.007,0.012,-0.02
121166,1.688,-0.318,-9.38,-0.007,0.013,-0.02
121269,1.683,-0.321,-9.376,-0.007,0.012,-0.02
121372,1.686,-0.309,-9.369,-0.007,0.012,-0.019
121475,1.678,-0.321,-9.385,-0.008,0.013,-0.019
121578,1.683,-0.306,-9.366,-0.007,0.012,-0.02
121681,1.697,-0.318,-9.371,-0.007,0.013,-0.019
121784,1.681,-0.316,-9.373,-0.007,0.012,-0.02
121887,1.695,-0.318,-9.373,-0.008,0.012,-0.019
121990,1.681,-0.309,-9.378,-0.007,0.012,-0.019
122093,1.678,-0.311,-9.371,-0.007,0.013,-0.02
122196,1.683,-0.318,-9.359,-0.007,0.013,-0.02
122299,1.683,-0.316,-9.373,-0.007,0.012,-0.02
122402,1.681,-0.306,-9.373,-0.007,0.011,-0.02
122505,1.686,-0.314,-9.371,-0.007,0.012,-0.02
122608,1.683,-0.314,-9.361,-0.007,0.012,-0.02
122711,1.683,-0.316,-9.371,-0.007,0.012,-0.02
122814,1.676,-0.321,-9.357,-0.007,0.012,-0.02
122917,1.681,-0.311,-9.357,-0.007,0.012,-0.019
123020,1.688,-0.311,-9.376,-0.007,0.012,-0.02
123123,1.681,-0.306,-9.378,-0.007,0.012,-0.02
123226,1.688,-0.316,-9.357,-0.007,0.012,-0.02
123329,1.683,-0.311,-9.376,-0.007,0.012,-0.02
123432,1.683,-0.306,-9.357,-0.007,0.012,-0.02
123535,1.686,-0.314,-9.366,-0.007,0.013,-0.02
123638,1.683,-0.316,-9.383,-0.007,0.012,-0.02
123741,1.681,-0.311,-9.366,-0.007,0.012,-0.02
123844,1.683,-0.309,-9.366,-0.007,0.012,-0.02
123947,1.688,-0.318,-9.369,-0.007,0.012,-0.02
124050,1.683,-0.314,-9.359,-0.007,0.012,-0.02
124153,1.695,-0.323,-9.373,-0.007,0.012,-0.02
124256,1.686,-0.314,-9.371,-0.007,0.013,-0.02
124359,1.688,-0.316,-9.388,-0.007,0.012,-0.019
124462,1.683,-0.314,-9.376,-0.007,0.012,-0.019
124565,1.686,-0.323,-9.388,-0.007,0.012,-0.019
124668,1.69,-0.311,-9.385,-0.007,0.012,-0.02
124771,1.683,-0.321,-9.361,-0.007,0.012,-0.02
124874,1.681,-0.316,-9.357,-0.007,0.012,-0.02
124977,1.681,-0.314,-9.373,-0.007,0.013,-0.019
125080,1.693,-0.311,-9.371,-0.007,0.013,-0.02
125183,1.688,-0.314,-9.354,-0.007,0.012,-0.02
125286,1.695,-0.304,-9.402,-0.007,0.012,-0.02
125389,1.697,-0.306,-9.378,-0.007,0.012,-0.019
125492,1.686,-0.314,-9.376,-0.007,0.012,-0.019
125595,1.693,-0.309,-9.345,-0.007,0.012,-0.02
125698,1.678,-0.311,-9.366,-0.007,0.012,-0.02
125801,1.693,-0.314,-9.359,-0.007,0.012,-0.02
125904,1.69,-0.311,-9.376,-0.007,0.012,-0.02
126007,1.683,-0.316,-9.352,-0.007,0.012,-0.02
126110,1.686,-0.306,-9.371,-0.007,0.012,-0.02
126213,1.674,-0.302,-9.352,-0.007,0.012,-0.02
126316,1.678,-0.314,-9.366,-0.007,0.013,-0.02
126419,1.693,-0.318,-9.357,-0.007,0.012,-0.02
126522,1.676,-0.311,-9.347,-0.007,0.012,-0.02
126625,1.674,-0.316,-9.369,-0.007,0.012,-0.019
126728,1.686,-0.318,-9.369,-0.007,0.012,-0.02
126831,1.681,-0.309,-9.366,-0.008,0.013,-0.02
126934,1.686,-0.314,-9.378,-0.007,0.012,-0.019
127037,1.683,-0.323,-9.371,-0.007,0.012,-0.019
127140,1.686,-0.309,-9.371,-0.007,0.012,-0.019
127243,1.688,-0.321,-9.378,-0.007,0.013,-0.02
127346,1.688,-0.314,-9.373,-0.007,0.012,-0.02
127449,1.686,-0.309,-9.364,-0.007,0.012,-0.02
127552,1.683,-0.311,-9.369,-0.007,0.012,-0.02
127655,1.681,-0.318,-9.352,-0.007,0.012,-0.02
127758,1.688,-0.306,-9.364,-0.007,0.012,-0.02
127861,1.688,-0.311,-9.359,-0.007,0.012,-0.019
127964,1.683,-0.306,-9.361,-0.007,0.012,-0.02
128067,1.678,-0.304,-9.369,-0.007,0.012,-0.02
128170,1.683,-0.314,-9.369,-0.007,0.012,-0.019
128273,1.683,-0.318,-9.371,-0.007,0.012,-0.02
128376,1.683,-0.311,-9.373,-0.007,0.012,-0.02
128479,1.693,-0.316,-9.385,-0.007,0.012,-0.02
128582,1.688,-0.306,-9.371,-0.007,0.012,-0.019
128685,1.693,-0.314,-9.376,-0.007,0.012,-0.02
128788,1.686,-0.306,-9.359,-0.007,0.012,-0.02
128891,1.674,-0.311,-9.366,-0.007,0.012,-0.019
128994,1.681,-0.314,-9.378,-0.007,0.012,-0.019
129097,1.678,-0.311,-9.369,-0.007,0.012,-0.02
129200,1.686,-0.316,-9.378,-0.007,0.012,-0.02
129303,1.683,-0.316,-9.369,-0.007,0.013,-0.019
129406,1.69,-0.311,-9.364,-0.007,0.012,-0.02
129509,1.688,-0.309,-9.359,-0.007,0.012,-0.02
129612,1.683,-0.316,-9.364,-0.007,0.012,-0.02
129715,1.683,-0.311,-9.354,-0.007,0.012,-0.02
129818,1.688,-0.314,-9.371,-0.007,0.012,-0.02
129921,1.683,-0.311,-9.359,-0.007,0.012,-0.02
130024,1.678,-0.326,-9.364,-0.007,0.012,-0.02
130127,1.693,-0.306,-9.361,-0.007,0.012,-0.02
130230,1.683,-0.321,-9.366,-0.007,0.012,-0.02
130333,1.69,-0.328,-9.373,-0.007,0.012,-0.02
130436,1.686,-0.314,-9.371,-0.007,0.012,-0.02
130539,1.683,-0.309,-9.371,-0.007,0.013,-0.02
130642,1.69,-0.309,-9.354,-0.007,0.012,-0.02
130745,1.681,-0.309,-9.361,-0.007,0.012,-0.02
130848,1.686,-0.314,-9.354,-0.007,0.012,-0.019
130951,1.693,-0.314,-9.361,-0.007,0.013,-0.02
131054,1.688,-0.302,-9.366,-0.007,0.012,-0.02
131157,1.683,-0.318,-9.349,-0.007,0.013,-0.019
131260,1.686,-0.318,-9.361,-0.007,0.012,-0.019
131363,1.681,-0.309,-9.366,-0.007,0.013,-0.019
131466,1.683,-0.318,-9.359,-0.007,0.013,-0.019
131569,1.683,-0.299,-9.364,-0.007,0.012,-0.02
131672,1.678,-0.316,-9.364,-0.008,0.012,-0.019
131775,1.686,-0.316,-9.352,-0.007,0.013,-0.019
131878,1.686,-0.321,-9.366,-0.007,0.012,-0.019
131981,1.678,-0.311,-9.354,-0.007,0.012,-0.02
132084,1.676,-0.326,-9.366,-0.007,0.012,-0.02
132187,1.693,-0.309,-9.376,-0.007,0.013,-0.02
132290,1.683,-0.311,-9.366,-0.007,0.013,-0.02
132393,1.688,-0.316,-9.383,-0.007,0.013,-0.02
132496,1.695,-0.311,-9.369,-0.007,0.012,-0.02
132599,1.69,-0.306,-9.364,-0.007,0.012,-0.02
132702,1.688,-0.318,-9.373,-0.007,0.012,-0.02
132805,1.683,-0.321,-9.371,-0.007,0.012,-0.02
132908,1.678,-0.321,-9.364,-0.007,0.012,-0.02
133011,1.674,-0.314,-9.366,-0.007,0.013,-0.02
133114,1.676,-0.321,-9.376,-0.007,0.012,-0.02
133217,1.674,-0.321,-9.369,-0.007,0.012,-0.02
133320,1.678,-0.314,-9.378,-0.007,0.012,-0.019
133423,1.678,-0.314,-9.354,-0.007,0.012,-0.02
133526,1.681,-0.318,-9.373,-0.007,0.013,-0.02
133629,1.69,-0.318,-9.38,-0.007,0.012,-0.02
133732,1.674,-0.323,-9.349,-0.007,0.012,-0.019
133835,1.683,-0.321,-9.361,-0.007,0.013,-0.019
133938,1.683,-0.316,-9.359,-0.007,0.012,-0.019
134041,1.674,-0.316,-9.354,-0.008,0.012,-0.019
134144,1.681,-0.316,-9.373,-0.007,0.013,-0.02
134247,1.683,-0.309,-9.361,-0.007,0.012,-0.02
134350,1.681,-0.311,-9.371,-0.007,0.012,-0.019
134453,1.688,-0.311,-9.354,-0.007,0.012,-0.02
134556,1.686,-0.314,-9.349,-0.007,0.012,-0.019
134659,1.681,-0.302,-9.371,-0.007,0.012,-0.02
134762,1.683,-0.309,-9.373,-0.007,0.012,-0.02
134865,1.688,-0.316,-9.371,-0.007,0.012,-0.02
134968,1.678,-0.318,-9.359,-0.007,0.012,-0.02
135071,1.69,-0.309,-9.357,-0.007,0.013,-0.02
135174,1.683,-0.309,-9.373,-0.007,0.012,-0.02
135277,1.686,-0.318,-9.364,-0.007,0.012,-0.019
135380,1.676,-0.314,-9.364,-0.007,0.012,-0.019
135483,1.686,-0.316,-9.371,-0.007,0.011,-0.02
135586,1.688,-0.309,-9.373,-0.007,0.012,-0.02
135689,1.683,-0.321,-9.373,-0.007,0.012,-0.02
135792,1.681,-0.321,-9.373,-0.007,0.011,-0.02
135895,1.683,-0.311,-9.378,-0.008,0.013,-0.019
135998,1.69,-0.321,-9.361,-0.007,0.012,-0.019
136101,1.683,-0.311,-9.369,-0.007,0.012,-0.02
136204,1.688,-0.321,-9.361,-0.007,0.012,-0.02
136307,1.69,-0.314,-9.361,-0.007,0.012,-0.02
136410,1.697,-0.311,-9.366,-0.007,0.012,-0.019
136513,1.678,-0.309,-9.373,-0.007,0.012,-0.019
136616,1.678,-0.316,-9.361,-0.007,0.012,-0.02
136719,1.686,-0.316,-9.364,-0.007,0.012,-0.02
136822,1.693,-0.318,-9.38,-0.007,0.012,-0.02
136925,1.688,-0.316,-9.364,-0.007,0.012,-0.019
137028,1.683,-0.318,-9.366,-0.007,0.011,-0.02
137131,1.688,-0.316,-9.378,-0.007,0.012,-0.02
137234,1.676,-0.311,-9.357,-0.007,0.012,-0.02
137337,1.681,-0.326,-9.359,-0.007,0.012,-0.02
137440,1.688,-0.316,-9.361,-0.007,0.012,-0.019
137543,1.686,-0.321,-9.371,-0.007,0.012,-0.02
137646,1.688,-0.318,-9.369,-0.007,0.012,-0.019
137749,1.686,-0.316,-9.357,-0.007,0.012,-0.02
137852,1.683,-0.311,-9.373,-0.007,0.013,-0.019
137955,1.686,-0.326,-9.364,-0.007,0.012,-0.02
138058,1.678,-0.311,-9.366,-0.007,0.012,-0.02
138161,1.688,-0.318,-9.376,-0.007,0.012,-0.02
138264,1.688,-0.323,-9.366,-0.007,0.012,-0.02
138367,1.676,-0.309,-9.359,-0.007,0.012,-0.02
138470,1.686,-0.316,-9.369,-0.007,0.012,-0.02
138573,1.688,-0.316,-9.361,-0.007,0.012,-0.02
138676,1.681,-0.316,-9.373,-0.007,0.012,-0.02
138779,1.688,-0.316,-9.369,-0.007,0.012,-0.02
138882,1.695,-0.316,-9.364,-0.007,0.012,-0.02
138985,1.676,-0.311,-9.366,-0.007,0.012,-0.019
139088,1.683,-0.316,-9.357,-0.007,0.012,-0.019
139191,1.676,-0.311,-9.357,-0.007,0.012,-0.019
139294,1.683,-0.311,-9.354,-0.007,0.012,-0.019
139397,1.686,-0.306,-9.361,-0.007,0.012,-0.02
139500,1.676,-0.309,-9.371,-0.007,0.012,-0.02
139603,1.686,-0.321,-9.361,-0.007,0.012,-0.02
139706,1.686,-0.314,-9.376,-0.007,0.012,-0.02
139809,1.678,-0.311,-9.366,-0.007,0.012,-0.02
139912,1.681,-0.318,-9.359,-0.007,0.012,-0.02
140015,1.683,-0.311,-9.357,-0.007,0.013,-0.019
140118,1.678,-0.316,-9.361,-0.007,0.012,-0.02
140221,1.686,-0.318,-9.34,-0.007,0.012,-0.02
140324,1.678,-0.318,-9.359,-0.007,0.013,-0.02
140427,1.686,-0.321,-9.38,-0.007,0.012,-0.02
140530,1.686,-0.318,-9.352,-0.007,0.012,-0.02
140633,1.681,-0.316,-9.373,-0.007,0.013,-0.019
140736,1.678,-0.323,-9.364,-0.007,0.012,-0.02
140839,1.674,-0.323,-9.359,-0.007,0.012,-0.02
140942,1.688,-0.316,-9.371,-0.007,0.012,-0.02
141045,1.741,-0.321,-9.4,-0.034,-0.383,-0.02
141148,1.001,-0.271,-9.424,-0.021,-0.232,-0.018
141251,1.056,-0.283,-9.462,-0.007,0.005,-0.02
141354,1.058,-0.268,-9.459,-0.007,0.012,-0.019
141457,1.061,-0.273,-9.464,-0.007,0.013,-0.019
141560,1.061,-0.271,-9.455,-0.007,0.012,-0.019
141663,1.053,-0.278,-9.443,-0.007,0.012,-0.019
141766,1.061,-0.278,-9.455,-0.007,0.012,-0.02
141869,1.065,-0.271,-9.445,-0.007,0.012,-0.02
141972,1.061,-0.271,-9.455,-0.007,0.012,-0.021
142075,1.053,-0.273,-9.452,-0.007,0.012,-0.02
142178,1.058,-0.268,-9.462,-0.007,0.012,-0.019
142281,1.065,-0.278,-9.445,-0.007,0.012,-0.02
142384,1.063,-0.278,-9.471,-0.007,0.012,-0.02
142487,1.056,-0.278,-9.464,-0.007,0.012,-0.02
142590,1.068,-0.271,-9.462,-0.007,0.012,-0.02
142693,1.058,-0.271,-9.455,-0.007,0.012,-0.019
142796,1.063,-0.28,-9.457,-0.007,0.012,-0.02
142899,1.065,-0.268,-9.452,-0.007,0.012,-0.02
143002,1.061,-0.273,-9.476,-0.007,0.012,-0.019
143105,1.061,-0.273,-9.459,-0.007,0.012,-0.02
143208,1.061,-0.273,-9.469,-0.007,0.012,-0.02
143311,1.051,-0.285,-9.464,-0.007,0.011,-0.019
143414,1.058,-0.268,-9.459,-0.007,0.012,-0.019
143517,1.058,-0.268,-9.457,-0.007,0.012,-0.02
143620,1.056,-0.285,-9.467,-0.007,0.012,-0.02
143723,1.07,-0.283,-9.457,-0.007,0.012,-0.02
143826,1.056,-0.273,-9.464,-0.007,0.012,-0.02
143929,1.053,-0.28,-9.471,-0.007,0.013,-0.02
144032,1.065,-0.275,-9.467,-0.007,0.012,-0.019
144135,1.063,-0.283,-9.448,-0.007,0.012,-0.019
144238,1.058,-0.275,-9.469,-0.007,0.012,-0.02
144341,0.989,-0.268,-9.498,-0.038,-0.499,-0.012
144444,0.484,-0.239,-9.488,-0.013,-0.1,-0.018
144547,0.51,-0.239,-9.51,-0.007,0.008,-0.02
144650,0.515,-0.251,-9.517,-0.007,0.012,-0.02
144753,0.515,-0.244,-9.517,-0.007,0.012,-0.02
144856,0.515,-0.249,-9.507,-0.007,0.012,-0.02
144959,0.517,-0.244,-9.51,-0.007,0.012,-0.02
145062,0.508,-0.242,-9.515,-0.007,0.012,-0.019
145165,0.522,-0.251,-9.503,-0.007,0.012,-0.02
145268,0.52,-0.254,-9.507,-0.007,0.012,-0.019
145371,0.515,-0.244,-9.517,-0.007,0.012,-0.02
145474,0.512,-0.239,-9.515,-0.007,0.012,-0.02
145577,0.517,-0.232,-9.498,-0.007,0.012,-0.019
145680,0.52,-0.239,-9.503,-0.007,0.012,-0.019
145783,0.524,-0.251,-9.512,-0.007,0.013,-0.02
145886,0.517,-0.244,-9.498,-0.007,0.012,-0.02
145989,0.515,-0.247,-9.51,-0.007,0.012,-0.019
146092,0.52,-0.237,-9.503,-0.007,0.012,-0.019
146195,0.512,-0.239,-9.515,-0.007,0.012,-0.019
146298,0.51,-0.249,-9.507,-0.007,0.012,-0.02
146401,0.52,-0.239,-9.5,-0.007,0.012,-0.02
146504,0.515,-0.244,-9.503,-0.007,0.012,-0.019
146607,0.508,-0.239,-9.51,-0.006,0.012,-0.019
146710,0.512,-0.254,-9.481,-0.007,0.013,-0.019
146813,0.508,-0.242,-9.503,-0.007,0.012,-0.02
146916,0.52,-0.237,-9.507,-0.007,0.012,-0.02
147019,0.515,-0.242,-9.517,-0.007,0.012,-0.02
147122,0.524,-0.239,-9.517,-0.007,0.013,-0.02
147225,0.52,-0.239,-9.498,-0.007,0.013,-0.02
147328,0.517,-0.239,-9.495,-0.007,0.012,-0.02
147431,0.52,-0.23,-9.519,-0.007,0.012,-0.019
147534,0.512,-0.247,-9.505,-0.007,0.012,-0.019
147637,0.51,-0.235,-9.503,-0.007,0.012,-0.019
147740,0.508,-0.242,-9.507,-0.007,0.012,-0.019
147843,0.508,-0.254,-9.515,-0.007,0.012,-0.019
147946,0.522,-0.242,-9.493,-0.007,0.012,-0.019
148049,0.517,-0.254,-9.505,-0.007,0.012,-0.019
148152,0.515,-0.249,-9.5,-0.007,0.012,-0.019
148255,0.512,-0.237,-9.519,-0.007,0.012,-0.019
148358,0.508,-0.242,-9.51,-0.007,0.012,-0.019
148461,0.515,-0.251,-9.505,-0.007,0.012,-0.02
148564,0.517,-0.249,-9.507,-0.007,0.012,-0.019
148667,0.512,-0.254,-9.495,-0.007,0.012,-0.019
148770,0.517,-0.237,-9.507,-0.008,0.012,-0.02
148873,0.512,-0.249,-9.512,-0.007,0.013,-0.02
148976,0.505,-0.235,-9.512,-0.007,0.012,-0.019
149079,0.508,-0.244,-9.503,-0.007,0.013,-0.02
149182,0.51,-0.244,-9.5,-0.007,0.012,-0.02
149285,0.508,-0.249,-9.503,-0.007,0.012,-0.02
149388,0.524,-0.249,-9.505,-0.007,0.012,-0.02
149491,0.517,-0.244,-9.495,-0.007,0.012,-0.02
149594,0.508,-0.249,-9.493,-0.007,0.012,-0.019
149697,0.52,-0.254,-9.51,-0.007,0.012,-0.02
149800,0.51,-0.247,-9.529,-0.007,0.013,-0.02
149903,0.508,-0.242,-9.505,-0.007,0.012,-0.019
150006,0.51,-0.244,-9.524,-0.007,0.013,-0.019
150109,0.512,-0.249,-9.515,-0.007,0.012,-0.019
150212,0.524,-0.242,-9.5,-0.007,0.012,-0.02
150315,0.517,-0.244,-9.503,-0.007,0.012,-0.019
150418,0.515,-0.239,-9.51,-0.007,0.013,-0.02
150521,0.51,-0.254,-9.491,-0.007,0.012,-0.02
150624,0.512,-0.239,-9.517,-0.007,0.012,-0.019
150727,0.508,-0.242,-9.491,-0.007,0.012,-0.02
150830,0.517,-0.242,-9.503,-0.007,0.013,-0.019
150933,0.52,-0.237,-9.519,-0.007,0.013,-0.019
151036,0.515,-0.256,-9.507,-0.007,0.012,-0.019
151139,0.515,-0.254,-9.503,-0.007,0.012,-0.02
151242,0.52,-0.244,-9.495,-0.007,0.012,-0.019
151345,0.524,-0.251,-9.512,-0.007,0.012,-0.02
151448,0.508,-0.256,-9.503,-0.007,0.012,-0.019
151551,0.515,-0.247,-9.517,-0.007,0.012,-0.02
151654,0.51,-0.247,-9.503,-0.007,0.012,-0.019
151757,0.517,-0.239,-9.507,-0.007,0.012,-0.02
151860,0.517,-0.239,-9.517,-0.007,0.012,-0.019
151963,0.5,-0.247,-9.503,-0.007,0.012,-0.019
152066,0.512,-0.251,-9.503,-0.007,0.012,-0.02
152169,0.51,-0.256,-9.495,-0.007,0.012,-0.019
152272,0.517,-0.247,-9.5,-0.007,0.013,-0.019
152375,0.522,-0.249,-9.517,-0.007,0.012,-0.02
152478,0.52,-0.244,-9.503,-0.007,0.012,-0.02
152581,0.515,-0.249,-9.515,-0.007,0.012,-0.019
152684,0.512,-0.244,-9.498,-0.007,0.013,-0.02
152787,0.512,-0.254,-9.503,-0.007,0.012,-0.02
152890,0.51,-0.249,-9.491,-0.007,0.013,-0.019
152993,0.522,-0.242,-9.505,-0.007,0.012,-0.02
153096,0.51,-0.244,-9.503,-0.007,0.012,-0.02
153199,0.517,-0.251,-9.531,-0.007,0.012,-0.019
153302,0.51,-0.239,-9.5,-0.007,0.012,-0.02
153405,0.512,-0.247,-9.495,-0.007,0.012,-0.02
153508,0.517,-0.242,-9.517,-0.006,0.012,-0.02
153611,0.52,-0.251,-9.51,-0.007,0.012,-0.02
153714,0.505,-0.244,-9.507,-0.007,0.012,-0.019
153817,0.51,-0.239,-9.51,-0.007,0.012,-0.02
153920,0.522,-0.23,-9.517,-0.007,0.012,-0.02
154023,0.515,-0.242,-9.515,-0.007,0.012,-0.02
154126,0.512,-0.239,-9.505,-0.007,0.012,-0.019
154229,0.508,-0.242,-9.507,-0.007,0.012,-0.019
154332,0.515,-0.247,-9.503,-0.007,0.012,-0.02
154435,0.524,-0.249,-9.498,-0.007,0.012,-0.019
154538,0.51,-0.247,-9.498,-0.007,0.012,-0.02
154641,0.512,-0.244,-9.512,-0.007,0.012,-0.02
154744,0.52,-0.247,-9.507,-0.007,0.012,-0.019
154847,0.517,-0.242,-9.51,-0.007,0.013,-0.02
154950,0.505,-0.239,-9.505,-0.007,0.012,-0.02
155053,0.512,-0.239,-9.505,-0.007,0.012,-0.019
155156,0.508,-0.244,-9.491,-0.007,0.012,-0.019
155259,0.517,-0.259,-9.505,-0.007,0.013,-0.02
155362,0.51,-0.242,-9.505,-0.007,0.012,-0.02
155465,0.515,-0.237,-9.5,-0.007,0.012,-0.019
155568,0.517,-0.244,-9.5,-0.007,0.012,-0.02
155671,0.524,-0.239,-9.515,-0.007,0.013,-0.02
155774,0.522,-0.249,-9.515,-0.007,0.012,-0.02
155877,0.512,-0.239,-9.5,-0.007,0.012,-0.02
155980,0.508,-0.235,-9.503,-0.007,0.012,-0.02
156083,0.522,-0.247,-9.503,-0.007,0.012,-0.019
156186,0.517,-0.251,-9.503,-0.007,0.012,-0.019
156289,0.522,-0.235,-9.498,-0.007,0.011,-0.02
156392,0.515,-0.237,-9.5,-0.007,0.012,-0.019
156495,0.51,-0.244,-9.507,-0.007,0.012,-0.02
156598,0.517,-0.247,-9.498,-0.006,0.012,-0.019
156701,0.517,-0.249,-9.495,-0.007,0.012,-0.019
156804,0.515,-0.235,-9.495,-0.007,0.012,-0.019
156907,0.512,-0.242,-9.498,-0.007,0.012,-0.019
157010,0.505,-0.247,-9.517,-0.007,0.013,-0.02
157113,0.515,-0.242,-9.5,-0.007,0.012,-0.02
157216,0.515,-0.242,-9.498,-0.007,0.012,-0.02
157319,0.508,-0.254,-9.493,-0.007,0.012,-0.019
157422,0.515,-0.244,-9.5,-0.007,0.013,-0.019
157525,0.51,-0.244,-9.503,-0.007,0.012,-0.019
157628,0.522,-0.244,-9.505,-0.007,0.012,-0.019
157731,0.527,-0.242,-9.5,-0.007,0.012,-0.019
157834,0.52,-0.247,-9.505,-0.007,0.012,-0.019
157937,0.512,-0.237,-9.505,-0.007,0.012,-0.02
158040,0.524,-0.239,-9.51,-0.007,0.012,-0.02
158143,0.515,-0.249,-9.5,-0.007,0.012,-0.02
158246,0.51,-0.254,-9.491,-0.007,0.012,-0.02
158349,0.522,-0.247,-9.495,-0.007,0.012,-0.02
158452,0.51,-0.254,-9.503,-0.007,0.012,-0.019
158555,0.505,-0.251,-9.507,-0.007,0.011,-0.019
158658,0.515,-0.249,-9.486,-0.006,0.012,-0.019
158761,0.517,-0.239,-9.512,-0.007,0.012,-0.019
158864,0.52,-0.242,-9.505,-0.007,0.011,-0.019
158967,0.52,-0.251,-9.505,-0.007,0.012,-0.02
159070,0.517,-0.242,-9.512,-0.007,0.013,-0.02
159173,0.522,-0.242,-9.527,-0.007,0.013,-0.02
159276,0.517,-0.247,-9.519,-0.007,0.012,-0.019
159379,0.508,-0.235,-9.531,-0.007,0.012,-0.019
159482,0.512,-0.247,-9.51,-0.007,0.012,-0.02
159585,0.515,-0.247,-9.507,-0.007,0.012,-0.02
159688,0.515,-0.237,-9.503,-0.007,0.012,-0.019
159791,0.517,-0.249,-9.519,-0.007,0.012,-0.02
159894,0.503,-0.23,-9.527,-0.007,0.012,-0.02
159997,0.515,-0.251,-9.5,-0.007,0.012,-0.019
160100,0.52,-0.251,-9.512,-0.007,0.012,-0.02
160203,0.51,-0.251,-9.503,-0.007,0.012,-0.019
160306,0.51,-0.247,-9.519,-0.007,0.012,-0.02
160409,0.52,-0.249,-9.488,-0.007,0.012,-0.02
160512,0.52,-0.249,-9.503,-0.007,0.012,-0.019
160615,0.51,-0.251,-9.495,-0.006,0.012,-0.02
160718,0.512,-0.251,-9.51,-0.007,0.013,-0.02
160821,0.515,-0.237,-9.5,-0.007,0.012,-0.02
160924,0.517,-0.237,-9.527,-0.007,0.012,-0.019
161027,0.52,-0.242,-9.5,-0.007,0.012,-0.019
161130,0.512,-0.237,-9.491,-0.007,0.013,-0.019
161233,0.51,-0.247,-9.51,-0.007,0.012,-0.019
161336,0.524,-0.247,-9.507,-0.007,0.013,-0.02
161439,0.524,-0.237,-9.529,-0.007,0.012,-0.019
161542,0.515,-0.251,-9.495,-0.006,0.013,-0.02
161645,0.505,-0.235,-9.51,-0.007,0.013,-0.019
161748,0.512,-0.244,-9.505,-0.007,0.012,-0.02
161851,0.515,-0.254,-9.512,-0.007,0.011,-0.019
161954,0.51,-0.239,-9.507,-0.007,0.012,-0.019
162057,0.52,-0.232,-9.507,-0.007,0.012,-0.019
162160,0.515,-0.239,-9.517,-0.007,0.012,-0.02
162263,0.51,-0.247,-9.498,-0.007,0.012,-0.02
162366,0.505,-0.247,-9.498,-0.007,0.012,-0.02
162469,0.51,-0.242,-9.51,-0.007,0.012,-0.02
162572,0.52,-0.261,-9.515,-0.007,0.012,-0.02
162675,0.515,-0.249,-9.512,-0.008,0.012,-0.02
162778,0.515,-0.239,-9.503,-0.007,0.013,-0.02
162881,0.515,-0.251,-9.5,-0.007,0.012,-0.02
162984,0.52,-0.247,-9.512,-0.007,0.012,-0.02
163087,0.52,-0.242,-9.522,-0.007,0.012,-0.019
163190,0.51,-0.244,-9.524,-0.007,0.012,-0.02
163293,0.508,-0.237,-9.493,-0.007,0.012,-0.02
163396,0.515,-0.237,-9.51,-0.007,0.012,-0.02
163499,0.517,-0.249,-9.488,-0.007,0.012,-0.019
163602,0.515,-0.239,-9.5,-0.007,0.013,-0.019
163705,0.52,-0.251,-9.507,-0.007,0.013,-0.02
163808,0.51,-0.244,-9.517,-0.007,0.012,-0.019
163911,0.508,-0.239,-9.498,-0.007,0.012,-0.019
164014,0.517,-0.259,-9.505,-0.007,0.012,-0.019
164117,0.51,-0.242,-9.493,-0.008,0.012,-0.019
164220,0.515,-0.249,-9.517,-0.007,0.012,-0.02
164323,0.381,-0.235,-9.481,0.006,0.245,-0.024
164426,1.111,-0.275,-9.495,0.015,0.357,-0.023
164529,1.116,-0.285,-9.467,-0.006,0.028,-0.02
164632,1.109,-0.28,-9.452,-0.007,0.013,-0.019
164735,1.106,-0.278,-9.443,-0.007,0.012,-0.02
164838,1.118,-0.28,-9.459,-0.007,0.012,-0.019
164941,1.106,-0.271,-9.452,-0.007,0.013,-0.02
165044,1.109,-0.283,-9.452,-0.007,0.012,-0.02
165147,1.106,-0.283,-9.438,-0.007,0.012,-0.02
165250,1.099,-0.285,-9.443,-0.007,0.012,-0.02
165353,1.109,-0.29,-9.45,-0.007,0.012,-0.02
165456,1.104,-0.283,-9.448,-0.007,0.012,-0.02
165559,1.101,-0.28,-9.45,-0.007,0.012,-0.02
165662,1.111,-0.285,-9.452,-0.007,0.012,-0.019
165765,1.106,-0.29,-9.445,-0.007,0.012,-0.019
165868,1.099,-0.283,-9.445,-0.007,0.012,-0.02
165971,1.104,-0.278,-9.448,-0.006,0.012,-0.02
166074,1.104,-0.268,-9.452,-0.007,0.012,-0.02
166177,1.111,-0.285,-9.45,-0.007,0.012,-0.02
166280,1.109,-0.287,-9.448,-0.007,0.012,-0.02
166383,1.099,-0.278,-9.45,-0.007,0.012,-0.019
166486,1.099,-0.29,-9.44,-0.007,0.012,-0.019
166589,1.099,-0.285,-9.431,-0.007,0.013,-0.02
166692,1.106,-0.283,-9.428,-0.007,0.012,-0.02
166795,1.099,-0.283,-9.436,-0.007,0.012,-0.02
166898,1.106,-0.283,-9.438,-0.007,0.012,-0.02
167001,1.104,-0.283,-9.445,-0.007,0.013,-0.02
167104,1.101,-0.278,-9.459,-0.007,0.013,-0.02
167207,1.099,-0.28,-9.45,-0.007,0.012,-0.019
167310,1.099,-0.28,-9.457,-0.007,0.012,-0.02
167413,1.094,-0.29,-9.448,-0.007,0.012,-0.02
167516,1.111,-0.287,-9.457,-0.006,0.013,-0.02
167619,1.104,-0.29,-9.431,-0.007,0.012,-0.02
167722,1.104,-0.287,-9.45,-0.007,0.012,-0.02
167825,1.104,-0.285,-9.452,-0.007,0.012,-0.021
167928,1.104,-0.278,-9.45,-0.007,0.012,-0.02
168031,1.097,-0.283,-9.445,-0.007,0.012,-0.019
168134,1.106,-0.283,-9.448,-0.007,0.012,-0.019
168237,1.104,-0.285,-9.443,-0.007,0.012,-0.019
168340,1.109,-0.271,-9.445,-0.007,0.012,-0.02
168443,1.109,-0.271,-9.438,-0.007,0.012,-0.02
168546,1.111,-0.283,-9.462,-0.007,0.012,-0.019
168649,1.113,-0.28,-9.44,-0.007,0.012,-0.02
168752,1.099,-0.292,-9.455,-0.007,0.012,-0.02
168855,1.101,-0.28,-9.443,-0.007,0.012,-0.019
168958,1.106,-0.278,-9.445,-0.007,0.012,-0.019
169061,1.116,-0.28,-9.459,-0.007,0.013,-0.02
169164,1.101,-0.273,-9.443,-0.008,0.012,-0.02
169267,1.113,-0.28,-9.448,-0.008,0.012,-0.019
169370,1.106,-0.283,-9.452,-0.007,0.012,-0.02
169473,1.101,-0.287,-9.459,-0.006,0.012,-0.02
169576,1.106,-0.287,-9.452,-0.007,0.013,-0.019
169679,1.104,-0.268,-9.457,-0.007,0.012,-0.02
169782,1.099,-0.278,-9.452,-0.007,0.013,-0.02
169885,1.094,-0.28,-9.44,-0.007,0.012,-0.019
169988,1.106,-0.283,-9.448,-0.007,0.013,-0.02
170091,1.104,-0.28,-9.462,-0.007,0.012,-0.02
170194,1.106,-0.283,-9.436,-0.007,0.012,-0.019
170297,1.101,-0.28,-9.443,-0.007,0.012,-0.02
170400,1.106,-0.285,-9.448,-0.007,0.013,-0.019
170503,1.116,-0.28,-9.44,-0.007,0.012,-0.02
170606,1.099,-0.285,-9.45,-0.007,0.012,-0.02
170709,1.113,-0.29,-9.445,-0.006,0.012,-0.019
170812,1.116,-0.278,-9.455,-0.007,0.012,-0.02
170915,1.106,-0.283,-9.457,-0.007,0.012,-0.02
171018,1.104,-0.29,-9.45,-0.007,0.012,-0.02
171121,1.104,-0.275,-9.445,-0.007,0.012,-0.02
171224,1.101,-0.275,-9.455,-0.007,0.012,-0.019
171327,1.097,-0.273,-9.455,-0.006,0.012,-0.02
171430,1.097,-0.273,-9.443,-0.007,0.012,-0.02
171533,1.118,-0.28,-9.455,-0.007,0.013,-0.019
171636,1.111,-0.278,-9.467,-0.008,0.013,-0.02
171739,1.104,-0.278,-9.467,-0.006,0.013,-0.02
171842,1.099,-0.275,-9.459,-0.007,0.012,-0.02
171945,1.097,-0.273,-9.455,-0.007,0.012,-0.019
172048,1.101,-0.275,-9.433,-0.007,0.012,-0.02
172151,1.092,-0.278,-9.45,-0.007,0.012,-0.019
172254,1.094,-0.273,-9.457,-0.007,0.013,-0.02
172357,1.099,-0.275,-9.443,-0.007,0.012,-0.019
172460,1.106,-0.28,-9.433,-0.007,0.013,-0.02
172563,1.099,-0.275,-9.457,-0.007,0.012,-0.02
172666,1.109,-0.278,-9.448,-0.007,0.012,-0.02
172769,1.106,-0.278,-9.448,-0.007,0.012,-0.02
172872,1.101,-0.285,-9.459,-0.007,0.012,-0.02
172975,1.111,-0.283,-9.438,-0.007,0.012,-0.02
173078,1.106,-0.275,-9.452,-0.007,0.013,-0.019
173181,1.097,-0.271,-9.445,-0.007,0.013,-0.019
173284,1.106,-0.28,-9.443,-0.007,0.013,-0.02
173387,1.106,-0.283,-9.457,-0.007,0.012,-0.02
173490,1.101,-0.28,-9.452,-0.007,0.012,-0.02
173593,1.104,-0.285,-9.448,-0.007,0.012,-0.02
173696,1.101,-0.271,-9.431,-0.007,0.013,-0.02
173799,1.101,-0.273,-9.443,-0.007,0.012,-0.02
173902,1.101,-0.278,-9.448,-0.007,0.012,-0.019
174005,1.113,-0.275,-9.44,-0.006,0.013,-0.019
174108,1.109,-0.273,-9.445,-0.007,0.012,-0.019
174211,1.109,-0.28,-9.476,-0.007,0.012,-0.019
174314,1.109,-0.292,-9.448,-0.007,0.012,-0.019
174417,1.106,-0.29,-9.448,-0.007,0.012,-0.02
174520,1.101,-0.273,-9.45,-0.007,0.013,-0.02
174623,1.116,-0.273,-9.452,-0.006,0.012,-0.02
174726,1.113,-0.278,-9.448,-0.007,0.013,-0.019
174829,1.111,-0.294,-9.438,-0.007,0.013,-0.019
174932,1.104,-0.283,-9.448,-0.007,0.012,-0.02
175035,1.104,-0.283,-9.433,-0.007,0.012,-0.019
175138,1.106,-0.278,-9.459,-0.007,0.012,-0.019
175241,1.113,-0.29,-9.452,-0.007,0.012,-0.019
175344,1.104,-0.273,-9.45,-0.007,0.013,-0.019
175447,1.104,-0.283,-9.457,-0.007,0.012,-0.019
175550,1.104,-0.275,-9.443,-0.007,0.012,-0.02
175653,1.106,-0.273,-9.45,-0.007,0.012,-0.02
175756,1.106,-0.275,-9.455,-0.007,0.012,-0.02
175859,1.099,-0.278,-9.443,-0.007,0.012,-0.02
175962,1.106,-0.28,-9.452,-0.007,0.013,-0.02
176065,1.106,-0.278,-9.448,-0.007,0.013,-0.019
176168,1.106,-0.28,-9.459,-0.007,0.013,-0.021
176271,1.123,-0.273,-9.445,-0.007,0.013,-0.02
176374,1.089,-0.287,-9.438,-0.007,0.012,-0.02
176477,1.111,-0.266,-9.459,-0.007,0.012,-0.02
176580,1.101,-0.28,-9.443,-0.007,0.012,-0.02
176683,1.104,-0.271,-9.452,-0.007,0.012,-0.019
176786,1.106,-0.28,-9.44,-0.007,0.012,-0.02
176889,1.097,-0.292,-9.448,-0.007,0.012,-0.019
176992,1.111,-0.29,-9.452,-0.007,0.012,-0.019
177095,1.101,-0.29,-9.443,-0.007,0.013,-0.019
177198,1.104,-0.278,-9.455,-0.007,0.012,-0.02
177301,1.099,-0.28,-9.433,-0.007,0.012,-0.02
177404,1.116,-0.28,-9.452,-0.007,0.012,-0.02
177507,1.106,-0.271,-9.452,-0.007,0.012,-0.019
177610,1.109,-0.278,-9.455,-0.007,0.012,-0.02
177713,1.106,-0.29,-9.448,-0.006,0.013,-0.019
177816,1.104,-0.278,-9.443,-0.007,0.012,-0.02
177919,1.104,-0.266,-9.445,-0.007,0.012,-0.02
178022,1.116,-0.292,-9.464,-0.007,0.012,-0.02
178125,1.113,-0.278,-9.438,-0.007,0.012,-0.019
178228,1.104,-0.29,-9.443,-0.006,0.012,-0.019
178331,1.094,-0.28,-9.445,-0.007,0.012,-0.02
178434,1.097,-0.297,-9.459,-0.007,0.012,-0.02
178537,1.099,-0.285,-9.459,-0.006,0.012,-0.02
178640,1.101,-0.278,-9.467,-0.007,0.012,-0.02
178743,1.106,-0.292,-9.455,-0.007,0.012,-0.02
178846,1.109,-0.287,-9.44,-0.007,0.012,-0.02
178949,1.087,-0.28,-9.443,-0.007,0.012,-0.019
179052,1.101,-0.285,-9.452,-0.007,0.012,-0.02
179155,1.109,-0.287,-9.452,-0.007,0.012,-0.019
179258,1.104,-0.278,-9.45,-0.007,0.012,-0.02
179361,1.101,-0.287,-9.443,-0.007,0.013,-0.019
179464,1.106,-0.28,-9.44,-0.007,0.013,-0.02
179567,1.113,-0.278,-9.455,-0.007,0.013,-0.019
179670,1.104,-0.283,-9.445,-0.007,0.012,-0.02
179773,1.106,-0.28,-9.45,-0.007,0.012,-0.02
179876,1.101,-0.287,-9.45,-0.007,0.012,-0.02
179979,1.104,-0.28,-9.44,-0.007,0.012,-0.02
180082,1.099,-0.278,-9.452,-0.007,0.012,-0.02
180185,1.111,-0.28,-9.443,-0.007,0.012,-0.02
180288,1.116,-0.285,-9.452,-0.007,0.012,-0.02
180391,1.101,-0.283,-9.455,-0.007,0.012,-0.02
180494,1.097,-0.273,-9.443,-0.007,0.012,-0.02
180597,1.106,-0.28,-9.436,-0.007,0.012,-0.02
180700,1.104,-0.275,-9.45,-0.007,0.012,-0.019
180803,1.101,-0.287,-9.448,-0.007,0.012,-0.02
180906,1.109,-0.283,-9.445,-0.007,0.012,-0.02
181009,1.111,-0.285,-9.433,-0.007,0.012,-0.02
181112,1.109,-0.292,-9.443,-0.007,0.012,-0.02
181215,1.111,-0.285,-9.45,-0.007,0.012,-0.02
181318,1.101,-0.287,-9.448,-0.007,0.012,-0.02
181421,1.106,-0.285,-9.452,-0.007,0.012,-0.02
181524,1.109,-0.278,-9.44,-0.007,0.012,-0.019
181627,1.104,-0.28,-9.455,-0.007,0.012,-0.02
181730,1.099,-0.283,-9.426,-0.007,0.012,-0.019
181833,1.101,-0.285,-9.445,-0.007,0.012,-0.019
181936,1.099,-0.283,-9.448,-0.006,0.013,-0.02
182039,1.106,-0.29,-9.433,-0.007,0.012,-0.02
182142,1.104,-0.28,-9.431,-0.007,0.012,-0.02
182245,1.104,-0.287,-9.45,-0.007,0.012,-0.019
182348,1.109,-0.283,-9.45,-0.007,0.012,-0.02
182451,1.097,-0.285,-9.462,-0.007,0.012,-0.02
182554,1.106,-0.285,-9.443,-0.007,0.013,-0.019
182657,1.101,-0.285,-9.45,-0.007,0.012,-0.02
182760,1.104,-0.283,-9.426,-0.007,0.013,-0.02
182863,1.099,-0.283,-9.45,-0.007,0.012,-0.02
182966,1.109,-0.285,-9.459,-0.007,0.012,-0.02
183069,1.109,-0.283,-9.45,-0.007,0.013,-0.02
183172,1.106,-0.275,-9.44,-0.007,0.013,-0.02
183275,1.094,-0.271,-9.462,-0.007,0.012,-0.02
183378,1.101,-0.287,-9.448,-0.007,0.012,-0.02
183481,1.094,-0.273,-9.452,-0.007,0.012,-0.02
183584,1.099,-0.285,-9.445,-0.007,0.013,-0.019
183687,1.101,-0.292,-9.44,-0.007,0.012,-0.019
183790,1.094,-0.285,-9.445,-0.007,0.013,-0.02
183893,1.109,-0.28,-9.457,-0.007,0.012,-0.019
183996,1.116,-0.278,-9.462,-0.007,0.012,-0.02
184099,1.106,-0.275,-9.436,-0.006,0.012,-0.02
184202,1.109,-0.278,-9.438,-0.006,0.012,-0.02
184305,1.097,-0.283,-9.448,-0.007,0.012,-0.019
184408,1.092,-0.287,-9.445,-0.007,0.013,-0.02
184511,1.104,-0.285,-9.443,-0.007,0.012,-0.02
184614,1.097,-0.275,-9.445,-0.007,0.013,-0.02
184717,1.113,-0.275,-9.45,-0.007,0.012,-0.02
184820,1.104,-0.29,-9.452,-0.007,0.012,-0.019
184923,1.104,-0.283,-9.448,-0.007,0.012,-0.019
185026,1.106,-0.294,-9.443,-0.007,0.013,-0.019
185129,1.101,-0.28,-9.457,-0.007,0.012,-0.02
185232,1.101,-0.287,-9.445,-0.007,0.012,-0.02
185335,1.104,-0.292,-9.433,-0.007,0.012,-0.019
185438,1.104,-0.271,-9.445,-0.007,0.012,-0.02
185541,1.111,-0.278,-9.436,-0.007,0.012,-0.02
185644,1.104,-0.287,-9.452,-0.007,0.012,-0.02
185747,1.104,-0.285,-9.443,-0.007,0.013,-0.02
185850,1.113,-0.283,-9.448,-0.007,0.012,-0.02
185953,1.109,-0.285,-9.433,-0.007,0.012,-0.02
186056,1.109,-0.278,-9.443,-0.007,0.012,-0.02
186159,1.101,-0.283,-9.438,-0.007,0.012,-0.019
186262,1.097,-0.285,-9.455,-0.007,0.012,-0.019
186365,1.092,-0.273,-9.436,-0.007,0.012,-0.02
186468,1.101,-0.268,-9.436,-0.007,0.012,-0.019
186571,1.106,-0.268,-9.448,-0.006,0.013,-0.019
186674,1.113,-0.278,-9.445,-0.007,0.012,-0.019
186777,1.111,-0.273,-9.443,-0.007,0.013,-0.02
186880,1.101,-0.275,-9.438,-0.007,0.011,-0.02
186983,1.092,-0.28,-9.452,-0.006,0.012,-0.02
187086,1.099,-0.275,-9.45,-0.007,0.013,-0.02
187189,1.109,-0.283,-9.448,-0.006,0.012,-0.02
187292,1.106,-0.278,-9.445,-0.006,0.012,-0.02
187395,1.104,-0.29,-9.45,-0.007,0.012,-0.02
187498,1.104,-0.268,-9.431,-0.007,0.013,-0.02
187601,1.101,-0.273,-9.438,-0.007,0.013,-0.02
187704,1.109,-0.278,-9.443,-0.007,0.012,-0.02
187807,1.097,-0.28,-9.426,-0.007,0.012,-0.02
187910,1.101,-0.283,-9.448,-0.008,0.013,-0.019
188013,1.104,-0.287,-9.452,-0.007,0.012,-0.019
188116,1.111,-0.285,-9.45,-0.006,0.013,-0.02
188219,1.109,-0.273,-9.438,-0.007,0.012,-0.019
188322,1.106,-0.28,-9.45,-0.007,0.012,-0.019
188425,1.104,-0.285,-9.448,-0.007,0.012,-0.02
188528,1.104,-0.28,-9.443,-0.007,0.012,-0.02
188631,1.092,-0.275,-9.445,-0.007,0.013,-0.019
188734,1.101,-0.28,-9.455,-0.007,0.012,-0.02
188837,1.101,-0.283,-9.436,-0.006,0.012,-0.019
188940,1.101,-0.285,-9.445,-0.007,0.013,-0.02
189043,1.097,-0.275,-9.448,-0.007,0.012,-0.02
189146,1.106,-0.273,-9.45,-0.007,0.012,-0.02
189249,1.106,-0.28,-9.448,-0.007,0.012,-0.02
189352,1.101,-0.283,-9.45,-0.007,0.012,-0.021
189455,1.097,-0.28,-9.445,-0.007,0.012,-0.02
189558,1.101,-0.273,-9.428,-0.007,0.012,-0.02
189661,1.104,-0.283,-9.443,-0.007,0.013,-0.02
189764,1.111,-0.28,-9.443,-0.007,0.012,-0.02
189867,1.104,-0.283,-9.452,-0.007,0.012,-0.019
189970,1.106,-0.283,-9.443,-0.007,0.012,-0.019
190073,1.109,-0.273,-9.436,-0.007,0.012,-0.02
190176,1.106,-0.283,-9.436,-0.007,0.012,-0.02
190279,1.104,-0.28,-9.452,-0.007,0.012,-0.02
190382,1.101,-0.275,-9.45,-0.007,0.012,-0.02
190485,1.106,-0.285,-9.443,-0.007,0.012,-0.02
190588,1.104,-0.287,-9.448,-0.007,0.013,-0.02
190691,1.099,-0.273,-9.452,-0.007,0.013,-0.02
190794,1.099,-0.283,-9.448,-0.007,0.013,-0.02
190897,1.113,-0.283,-9.445,-0.007,0.012,-0.019
191000,1.104,-0.283,-9.448,-0.007,0.012,-0.019
191103,1.106,-0.273,-9.44,-0.007,0.013,-0.02
191206,1.099,-0.28,-9.445,-0.007,0.012,-0.02
191309,1.109,-0.271,-9.443,-0.007,0.013,-0.02
191412,1.099,-0.273,-9.452,-0.007,0.012,-0.02
191515,1.109,-0.287,-9.45,-0.007,0.012,-0.02
191618,1.111,-0.28,-9.445,-0.007,0.012,-0.019
191721,1.109,-0.283,-9.445,-0.007,0.012,-0.02
191824,1.109,-0.287,-9.426,-0.007,0.012,-0.02
191927,1.104,-0.271,-9.45,-0.007,0.012,-0.02
192030,1.099,-0.273,-9.448,-0.007,0.012,-0.02
192133,1.106,-0.28,-9.436,-0.007,0.012,-0.02
192236,1.104,-0.287,-9.455,-0.007,0.012,-0.02
192339,1.111,-0.278,-9.44,-0.007,0.012,-0.02
192442,1.113,-0.271,-9.443,-0.007,0.012,-0.019
192545,1.094,-0.278,-9.443,-0.007,0.012,-0.02
192648,1.106,-0.285,-9.44,-0.007,0.012,-0.02
192751,1.106,-0.292,-9.44,-0.007,0.012,-0.02
192854,1.094,-0.278,-9.443,-0.007,0.012,-0.02
192957,1.109,-0.287,-9.438,-0.007,0.012,-0.019
193060,1.104,-0.287,-9.438,-0.007,0.012,-0.02
193163,1.109,-0.28,-9.431,-0.007,0.012,-0.019
193266,1.099,-0.275,-9.438,-0.007,0.012,-0.02
193369,1.101,-0.28,-9.45,-0.007,0.012,-0.02
193472,1.113,-0.273,-9.436,-0.007,0.012,-0.019
193575,1.116,-0.283,-9.445,-0.007,0.012,-0.019
193678,1.111,-0.287,-9.431,-0.007,0.012,-0.02
193781,1.109,-0.273,-9.433,-0.007,0.013,-0.02
193884,1.109,-0.285,-9.45,-0.007,0.012,-0.02
193987,1.109,-0.285,-9.44,-0.007,0.012,-0.02
194090,1.106,-0.283,-9.452,-0.007,0.012,-0.02
194193,1.116,-0.278,-9.459,-0.007,0.012,-0.02
194296,1.101,-0.283,-9.433,-0.007,0.012,-0.02
194399,1.104,-0.278,-9.438,-0.007,0.012,-0.02
194502,1.113,-0.283,-9.445,-0.007,0.012,-0.02
194605,1.099,-0.285,-9.443,-0.007,0.013,-0.02
194708,1.111,-0.287,-9.445,-0.007,0.012,-0.02
194811,1.106,-0.28,-9.45,-0.007,0.012,-0.019
194914,1.106,-0.29,-9.443,-0.007,0.013,-0.02
195017,1.089,-0.287,-9.448,-0.006,0.012,-0.02
195120,1.101,-0.292,-9.452,-0.007,0.012,-0.02
195223,1.101,-0.28,-9.44,-0.007,0.012,-0.02
195326,1.099,-0.283,-9.445,-0.006,0.013,-0.02
195429,1.101,-0.28,-9.44,-0.007,0.012,-0.02
195532,1.101,-0.283,-9.443,-0.007,0.012,-0.02
195635,1.104,-0.275,-9.45,-0.007,0.013,-0.02
195738,1.104,-0.29,-9.438,-0.007,0.012,-0.02
195841,1.113,-0.28,-9.445,-0.007,0.012,-0.02
195944,1.113,-0.275,-9.445,-0.007,0.012,-0.019
196047,1.109,-0.275,-9.45,-0.007,0.012,-0.02
196150,1.113,-0.275,-9.445,-0.007,0.012,-0.02
196253,1.099,-0.283,-9.445,-0.007,0.013,-0.02
196356,1.109,-0.285,-9.438,-0.006,0.012,-0.02
196459,1.109,-0.285,-9.438,-0.007,0.012,-0.02
196562,1.104,-0.278,-9.45,-0.006,0.012,-0.02
196665,1.116,-0.287,-9.45,-0.007,0.012,-0.02
196768,1.111,-0.266,-9.448,-0.007,0.012,-0.02
196871,1.097,-0.278,-9.44,-0.007,0.012,-0.019
196974,1.106,-0.283,-9.448,-0.007,0.012,-0.02
197077,1.106,-0.283,-9.45,-0.007,0.012,-0.02
197180,1.109,-0.292,-9.452,-0.006,0.012,-0.02
197283,1.113,-0.285,-9.45,-0.007,0.012,-0.02
197386,1.101,-0.275,-9.443,-0.007,0.012,-0.02
197489,1.113,-0.285,-9.44,-0.007,0.013,-0.02
197592,1.099,-0.273,-9.457,-0.007,0.012,-0.02
197695,1.104,-0.283,-9.455,-0.007,0.013,-0.02
197798,1.089,-0.275,-9.455,-0.007,0.012,-0.02
197901,1.104,-0.29,-9.448,-0.007,0.012,-0.019
198004,1.097,-0.283,-9.457,-0.007,0.012,-0.02
198107,1.104,-0.283,-9.443,-0.007,0.012,-0.02
198210,1.099,-0.285,-9.44,-0.007,0.012,-0.02
198313,1.104,-0.283,-9.436,-0.007,0.012,-0.019
198416,1.104,-0.285,-9.443,-0.006,0.013,-0.019
198519,1.113,-0.278,-9.455,-0.007,0.012,-0.019
198622,1.106,-0.278,-9.448,-0.006,0.012,-0.019
198725,1.099,-0.285,-9.455,-0.007,0.013,-0.019
198828,1.106,-0.28,-9.455,-0.007,0.013,-0.02
198931,1.104,-0.278,-9.443,-0.007,0.012,-0.02
199034,1.104,-0.287,-9.448,-0.007,0.012,-0.02
199137,1.118,-0.285,-9.44,-0.007,0.012,-0.02
199240,1.097,-0.273,-9.469,-0.007,0.012,-0.019
199343,1.106,-0.287,-9.45,-0.007,0.012,-0.02
199446,1.111,-0.28,-9.445,-0.007,0.012,-0.02
199549,1.099,-0.275,-9.44,-0.007,0.013,-0.02
199652,1.113,-0.285,-9.436,-0.007,0.012,-0.02
199755,1.106,-0.287,-9.426,-0.007,0.012,-0.019
199858,1.111,-0.287,-9.448,-0.007,0.013,-0.02
199961,1.099,-0.285,-9.45,-0.007,0.012,-0.019
200064,1.113,-0.273,-9.45,-0.007,0.012,-0.019
200167,1.109,-0.287,-9.445,-0.007,0.012,-0.02
200270,1.113,-0.28,-9.443,-0.007,0.012,-0.019
200373,1.104,-0.271,-9.433,-0.007,0.012,-0.02
200476,1.104,-0.28,-9.44,-0.007,0.012,-0.02
200579,1.097,-0.287,-9.455,-0.007,0.012,-0.02
200682,1.106,-0.287,-9.438,-0.007,0.012,-0.02
200785,1.106,-0.29,-9.455,-0.007,0.012,-0.02
200888,1.099,-0.29,-9.438,-0.007,0.012,-0.02
200991,1.099,-0.273,-9.448,-0.007,0.013,-0.019
201094,1.106,-0.275,-9.448,-0.007,0.013,-0.02
201197,1.099,-0.285,-9.433,-0.007,0.013,-0.019
201300,1.109,-0.29,-9.438,-0.007,0.013,-0.02
201403,1.109,-0.285,-9.44,-0.007,0.012,-0.02
201506,1.106,-0.28,-9.452,-0.007,0.012,-0.02
201609,1.101,-0.283,-9.452,-0.007,0.013,-0.02
201712,1.106,-0.283,-9.44,-0.007,0.012,-0.02
201815,1.101,-0.283,-9.433,-0.007,0.012,-0.02
201918,1.099,-0.283,-9.438,-0.007,0.012,-0.02
202021,1.099,-0.28,-9.448,-0.007,0.012,-0.02
202124,1.116,-0.285,-9.438,-0.007,0.012,-0.019
202227,1.097,-0.278,-9.433,-0.007,0.012,-0.02
202330,1.106,-0.271,-9.44,-0.007,0.013,-0.02
202433,1.097,-0.287,-9.448,-0.006,0.012,-0.02
202536,1.109,-0.278,-9.436,-0.007,0.012,-0.02
202639,1.109,-0.287,-9.445,-0.007,0.012,-0.02
202742,1.097,-0.292,-9.45,-0.007,0.012,-0.02
202845,1.099,-0.28,-9.459,-0.007,0.012,-0.02
202948,1.106,-0.29,-9.44,-0.007,0.012,-0.02
203051,1.104,-0.275,-9.443,-0.007,0.012,-0.02
203154,1.101,-0.273,-9.445,-0.007,0.012,-0.02
203257,1.118,-0.275,-9.445,-0.007,0.012,-0.02
203360,1.109,-0.292,-9.45,-0.007,0.012,-0.02
203463,1.106,-0.28,-9.445,-0.007,0.012,-0.019
203566,1.116,-0.283,-9.44,-0.007,0.013,-0.02
203669,1.111,-0.283,-9.44,-0.008,0.012,-0.02
203772,1.104,-0.285,-9.452,-0.007,0.012,-0.02
203875,1.097,-0.29,-9.45,-0.007,0.012,-0.02
203978,1.097,-0.283,-9.438,-0.007,0.012,-0.02
204081,1.104,-0.283,-9.44,-0.007,0.012,-0.02
204184,1.101,-0.273,-9.443,-0.007,0.013,-0.02
204287,1.025,-0.271,-9.421,-0.006,0.029,-0.019
204390,1.381,-0.309,-9.409,0.009,0.277,-0.021
204493,1.448,-0.302,-9.397,-0.006,0.03,-0.02
204596,1.446,-0.297,-9.385,-0.007,0.014,-0.02
204699,1.448,-0.314,-9.409,-0.007,0.012,-0.02
204802,1.441,-0.309,-9.385,-0.007,0.012,-0.02
204905,1.446,-0.309,-9.38,-0.007,0.012,-0.02
205008,1.446,-0.314,-9.395,-0.007,0.012,-0.02
205111,1.451,-0.302,-9.397,-0.007,0.013,-0.02
205214,1.456,-0.309,-9.395,-0.007,0.012,-0.02
205317,1.441,-0.302,-9.407,-0.007,0.012,-0.02
205420,1.444,-0.302,-9.39,-0.007,0.012,-0.02
205523,1.448,-0.292,-9.409,-0.007,0.012,-0.02
205626,1.446,-0.304,-9.385,-0.007,0.012,-0.019
205729,1.446,-0.299,-9.392,-0.007,0.012,-0.02
205832,1.446,-0.304,-9.39,-0.006,0.012,-0.02
205935,1.439,-0.304,-9.397,-0.007,0.012,-0.02
206038,1.456,-0.299,-9.4,-0.007,0.011,-0.02
206141,1.437,-0.306,-9.395,-0.007,0.013,-0.02
206244,1.446,-0.309,-9.392,-0.007,0.012,-0.02
206347,1.456,-0.304,-9.404,-0.007,0.012,-0.02
206450,1.439,-0.297,-9.397,-0.007,0.012,-0.019
206553,1.448,-0.299,-9.4,-0.007,0.012,-0.02
206656,1.451,-0.302,-9.4,-0.007,0.012,-0.02
206759,1.453,-0.309,-9.402,-0.007,0.012,-0.02
206862,1.441,-0.302,-9.4,-0.007,0.012,-0.019
206965,1.434,-0.306,-9.397,-0.007,0.013,-0.019
207068,1.448,-0.304,-9.397,-0.007,0.013,-0.02
207171,1.453,-0.302,-9.407,-0.007,0.013,-0.02
207274,1.451,-0.309,-9.395,-0.007,0.012,-0.02
207377,1.448,-0.306,-9.4,-0.007,0.012,-0.02
207480,1.444,-0.304,-9.395,-0.007,0.012,-0.02
207583,1.444,-0.304,-9.397,-0.007,0.012,-0.02
207686,1.446,-0.294,-9.404,-0.007,0.012,-0.019
207789,1.456,-0.297,-9.39,-0.007,0.011,-0.019
207892,1.441,-0.304,-9.392,-0.007,0.013,-0.019
207995,1.448,-0.297,-9.404,-0.007,0.012,-0.02
208098,1.451,-0.304,-9.397,-0.007,0.013,-0.02
208201,1.448,-0.292,-9.4,-0.007,0.012,-0.02
208304,1.453,-0.304,-9.392,-0.007,0.012,-0.02
208407,1.439,-0.294,-9.404,-0.007,0.013,-0.02
208510,1.441,-0.304,-9.39,-0.007,0.012,-0.02
208613,1.453,-0.304,-9.395,-0.007,0.012,-0.02
208716,1.448,-0.306,-9.392,-0.006,0.012,-0.019
208819,1.444,-0.302,-9.395,-0.007,0.012,-0.02
208922,1.446,-0.309,-9.383,-0.007,0.013,-0.021
209025,1.446,-0.302,-9.397,-0.007,0.013,-0.019
209128,1.444,-0.294,-9.397,-0.007,0.012,-0.02
209231,1.444,-0.306,-9.409,-0.007,0.012,-0.02
209334,1.441,-0.299,-9.388,-0.007,0.012,-0.021
209437,1.453,-0.297,-9.4,-0.007,0.012,-0.02
209540,1.446,-0.302,-9.404,-0.007,0.012,-0.02
209643,1.439,-0.304,-9.407,-0.007,0.013,-0.02
209746,1.453,-0.309,-9.407,-0.006,0.012,-0.02
209849,1.444,-0.302,-9.397,-0.007,0.012,-0.02
209952,1.444,-0.302,-9.4,-0.007,0.012,-0.019
210055,1.448,-0.314,-9.395,-0.007,0.012,-0.02
210158,1.441,-0.306,-9.39,-0.007,0.013,-0.02
210261,1.448,-0.309,-9.385,-0.007,0.013,-0.019
210364,1.441,-0.311,-9.397,-0.007,0.012,-0.02
210467,1.444,-0.306,-9.402,-0.007,0.012,-0.02
210570,1.458,-0.306,-9.395,-0.007,0.013,-0.02
210673,1.441,-0.302,-9.395,-0.007,0.013,-0.02
210776,1.448,-0.302,-9.397,-0.007,0.012,-0.019
210879,1.448,-0.304,-9.392,-0.007,0.012,-0.02
210982,1.456,-0.297,-9.395,-0.007,0.012,-0.02
211085,1.444,-0.306,-9.376,-0.007,0.012,-0.02
211188,1.446,-0.311,-9.402,-0.007,0.013,-0.02
211291,1.448,-0.302,-9.39,-0.007,0.012,-0.02
211394,1.453,-0.306,-9.39,-0.007,0.012,-0.019
211497,1.444,-0.302,-9.392,-0.007,0.012,-0.019
211600,1.444,-0.304,-9.38,-0.007,0.012,-0.019
211703,1.448,-0.311,-9.397,-0.007,0.012,-0.02
211806,1.451,-0.304,-9.39,-0.007,0.012,-0.02
211909,1.444,-0.292,-9.395,-0.007,0.012,-0.02
212012,1.441,-0.309,-9.39,-0.007,0.012,-0.02
212115,1.453,-0.306,-9.388,-0.007,0.012,-0.02
212218,1.448,-0.306,-9.385,-0.007,0.013,-0.02
212321,1.444,-0.304,-9.404,-0.007,0.012,-0.02
212424,1.441,-0.302,-9.388,-0.006,0.013,-0.02
212527,1.458,-0.314,-9.392,-0.007,0.012,-0.02
212630,1.441,-0.304,-9.383,-0.007,0.012,-0.02
212733,1.444,-0.304,-9.409,-0.007,0.012,-0.021
212836,1.446,-0.304,-9.383,-0.007,0.012,-0.02
212939,1.446,-0.302,-9.388,-0.007,0.013,-0.02
213042,1.451,-0.302,-9.402,-0.007,0.012,-0.02
213145,1.451,-0.299,-9.392,-0.007,0.012,-0.019
213248,1.446,-0.302,-9.402,-0.007,0.012,-0.02
213351,1.446,-0.311,-9.392,-0.007,0.013,-0.02
213454,1.444,-0.304,-9.378,-0.007,0.013,-0.02
213557,1.446,-0.299,-9.407,-0.007,0.012,-0.02
213660,1.453,-0.302,-9.392,-0.007,0.012,-0.019
213763,1.444,-0.304,-9.392,-0.007,0.012,-0.02
213866,1.448,-0.297,-9.383,-0.007,0.012,-0.02
213969,1.439,-0.297,-9.404,-0.007,0.013,-0.02
214072,1.448,-0.304,-9.39,-0.007,0.013,-0.02
214175,1.451,-0.297,-9.4,-0.007,0.012,-0.019
214278,1.441,-0.297,-9.397,-0.007,0.013,-0.02
214381,1.448,-0.309,-9.395,-0.007,0.013,-0.019
214484,1.446,-0.302,-9.404,-0.007,0.013,-0.02
214587,1.439,-0.309,-9.395,-0.007,0.012,-0.02
214690,1.446,-0.306,-9.388,-0.007,0.013,-0.02
214793,1.451,-0.311,-9.397,-0.007,0.012,-0.02
214896,1.453,-0.302,-9.392,-0.007,0.012,-0.02
214999,1.456,-0.306,-9.392,-0.006,0.012,-0.02
215102,1.446,-0.304,-9.4,-0.007,0.013,-0.02
215205,1.456,-0.302,-9.392,-0.007,0.012,-0.02
215308,1.444,-0.299,-9.383,-0.007,0.012,-0.02
215411,1.441,-0.292,-9.414,-0.007,0.012,-0.02
215514,1.446,-0.302,-9.409,-0.007,0.013,-0.02
215617,1.439,-0.302,-9.397,-0.007,0.012,-0.02
215720,1.446,-0.304,-9.388,-0.007,0.012,-0.019
215823,1.448,-0.304,-9.392,-0.007,0.012,-0.02
215926,1.446,-0.309,-9.4,-0.007,0.012,-0.02
216029,1.451,-0.292,-9.4,-0.007,0.012,-0.02
216132,1.441,-0.306,-9.397,-0.006,0.012,-0.02
216235,1.451,-0.299,-9.395,-0.007,0.013,-0.02
216338,1.453,-0.306,-9.388,-0.007,0.012,-0.02
216441,1.441,-0.302,-9.397,-0.007,0.013,-0.02
216544,1.444,-0.297,-9.38,-0.007,0.012,-0.02
216647,1.451,-0.311,-9.38,-0.007,0.013,-0.02
216750,1.451,-0.309,-9.397,-0.007,0.012,-0.02
216853,1.456,-0.299,-9.395,-0.007,0.012,-0.019
216956,1.458,-0.299,-9.404,-0.007,0.012,-0.02
217059,1.441,-0.302,-9.39,-0.007,0.012,-0.02
217162,1.441,-0.297,-9.392,-0.007,0.013,-0.02
217265,1.441,-0.311,-9.392,-0.007,0.013,-0.02
217368,1.448,-0.306,-9.392,-0.007,0.012,-0.02
217471,1.432,-0.297,-9.378,-0.007,0.012,-0.019
217574,1.439,-0.302,-9.385,-0.007,0.012,-0.02
217677,1.448,-0.299,-9.392,-0.008,0.012,-0.02
217780,1.451,-0.304,-9.395,-0.007,0.012,-0.021
217883,1.441,-0.299,-9.407,-0.007,0.011,-0.02
217986,1.446,-0.306,-9.385,-0.007,0.013,-0.02
218089,1.446,-0.306,-9.383,-0.007,0.012,-0.02
218192,1.453,-0.294,-9.39,-0.007,0.012,-0.02
218295,1.444,-0.297,-9.404,-0.007,0.012,-0.02
218398,1.446,-0.306,-9.397,-0.007,0.013,-0.02
218501,1.444,-0.306,-9.39,-0.007,0.013,-0.02
218604,1.453,-0.292,-9.412,-0.007,0.012,-0.02
218707,1.458,-0.294,-9.38,-0.007,0.012,-0.02
218810,1.451,-0.314,-9.392,-0.007,0.012,-0.019
218913,1.446,-0.306,-9.371,-0.007,0.012,-0.02
219016,1.441,-0.304,-9.395,-0.007,0.012,-0.02
219119,1.441,-0.294,-9.395,-0.007,0.013,-0.019
219222,1.444,-0.302,-9.392,-0.007,0.012,-0.02
219325,1.451,-0.297,-9.38,-0.007,0.012,-0.02
219428,1.444,-0.302,-9.4,-0.007,0.012,-0.02
219531,1.453,-0.297,-9.39,-0.007,0.012,-0.019
219634,1.453,-0.299,-9.373,-0.007,0.012,-0.019
219737,1.465,-0.304,-9.39,-0.007,0.013,-0.02
219840,1.448,-0.302,-9.388,-0.007,0.012,-0.02
219943,1.453,-0.299,-9.397,-0.007,0.012,-0.02
220046,1.451,-0.299,-9.395,-0.007,0.013,-0.02
220149,1.441,-0.302,-9.397,-0.007,0.012,-0.019
220252,1.451,-0.297,-9.388,-0.006,0.012,-0.02
220355,1.446,-0.299,-9.392,-0.007,0.013,-0.019
220458,1.441,-0.302,-9.376,-0.007,0.012,-0.02
220561,1.446,-0.294,-9.385,-0.007,0.013,-0.02
220664,1.448,-0.302,-9.39,-0.007,0.012,-0.02
220767,1.451,-0.294,-9.412,-0.007,0.012,-0.02
220870,1.444,-0.306,-9.392,-0.007,0.013,-0.02
220973,1.441,-0.304,-9.395,-0.007,0.012,-0.019
221076,1.451,-0.304,-9.4,-0.007,0.012,-0.02
221179,1.446,-0.302,-9.4,-0.007,0.013,-0.02
221282,1.444,-0.309,-9.404,-0.007,0.013,-0.02
221385,1.451,-0.304,-9.383,-0.007,0.012,-0.02
221488,1.46,-0.306,-9.383,-0.007,0.013,-0.021
221591,1.444,-0.304,-9.378,-0.007,0.012,-0.02
221694,1.437,-0.299,-9.395,-0.007,0.013,-0.02
221797,1.444,-0.309,-9.397,-0.007,0.013,-0.02
221900,1.451,-0.294,-9.397,-0.007,0.012,-0.02
222003,1.446,-0.306,-9.395,-0.006,0.012,-0.02
222106,1.446,-0.299,-9.4,-0.007,0.012,-0.02
222209,1.446,-0.297,-9.39,-0.007,0.012,-0.02
222312,1.437,-0.306,-9.392,-0.007,0.013,-0.02
222415,1.446,-0.311,-9.383,-0.007,0.012,-0.02
222518,1.446,-0.294,-9.4,-0.007,0.012,-0.02
222621,1.451,-0.306,-9.397,-0.008,0.012,-0.02
222724,1.446,-0.302,-9.397,-0.007,0.012,-0.019
222827,1.453,-0.297,-9.412,-0.007,0.012,-0.02
222930,1.448,-0.302,-9.392,-0.007,0.012,-0.02
223033,1.444,-0.304,-9.4,-0.007,0.012,-0.02
223136,1.453,-0.29,-9.388,-0.007,0.012,-0.02
223239,1.448,-0.292,-9.397,-0.007,0.012,-0.02
223342,1.446,-0.299,-9.392,-0.007,0.012,-0.019
223445,1.451,-0.299,-9.395,-0.007,0.013,-0.019
223548,1.439,-0.316,-9.392,-0.007,0.012,-0.019
223651,1.451,-0.299,-9.395,-0.006,0.013,-0.02
223754,1.451,-0.314,-9.385,-0.007,0.012,-0.02
223857,1.444,-0.306,-9.388,-0.006,0.013,-0.02
223960,1.453,-0.302,-9.397,-0.007,0.013,-0.02
224063,1.451,-0.299,-9.4,-0.006,0.013,-0.02
224166,1.444,-0.311,-9.407,-0.007,0.012,-0.02
224269,1.456,-0.299,-9.378,-0.006,0.012,-0.02
224372,1.444,-0.306,-9.397,-0.007,0.013,-0.02
224475,1.463,-0.304,-9.397,-0.007,0.013,-0.02
224578,1.444,-0.306,-9.39,-0.007,0.012,-0.02
224681,1.437,-0.299,-9.383,-0.007,0.013,-0.02
224784,1.441,-0.306,-9.412,-0.007,0.013,-0.02
224887,1.444,-0.304,-9.407,-0.007,0.012,-0.02
224990,1.451,-0.309,-9.397,-0.007,0.012,-0.019
225093,1.434,-0.294,-9.38,-0.006,0.012,-0.02
225196,1.448,-0.311,-9.397,-0.007,0.012,-0.02
225299,1.446,-0.309,-9.397,-0.006,0.013,-0.019
225402,1.448,-0.304,-9.4,-0.006,0.012,-0.021
225505,1.441,-0.306,-9.395,-0.007,0.013,-0.02
225608,1.448,-0.302,-9.397,-0.007,0.012,-0.02
225711,1.448,-0.306,-9.39,-0.007,0.012,-0.02
225814,1.446,-0.302,-9.397,-0.006,0.013,-0.02
225917,1.458,-0.294,-9.383,-0.007,0.012,-0.02
226020,1.448,-0.299,-9.395,-0.007,0.012,-0.02
226123,1.448,-0.297,-9.385,-0.007,0.013,-0.02
226226,1.446,-0.299,-9.392,-0.007,0.012,-0.02
226329,1.446,-0.302,-9.397,-0.007,0.012,-0.02
226432,1.446,-0.302,-9.38,-0.007,0.012,-0.02
226535,1.451,-0.309,-9.39,-0.007,0.013,-0.02
226638,1.451,-0.306,-9.392,-0.007,0.013,-0.02
226741,1.446,-0.309,-9.407,-0.007,0.012,-0.021
226844,1.439,-0.309,-9.388,-0.007,0.012,-0.02
226947,1.446,-0.309,-9.378,-0.007,0.012,-0.02
227050,1.439,-0.297,-9.397,-0.007,0.012,-0.02
227153,1.448,-0.297,-9.407,-0.007,0.012,-0.02
227256,1.448,-0.302,-9.388,-0.007,0.012,-0.02
227359,1.446,-0.306,-9.39,-0.007,0.012,-0.02
227462,1.448,-0.302,-9.395,-0.007,0.012,-0.02
227565,1.453,-0.311,-9.4,-0.007,0.012,-0.02
227668,1.446,-0.306,-9.39,-0.007,0.012,-0.02
227771,1.446,-0.302,-9.385,-0.006,0.012,-0.02
227874,1.446,-0.309,-9.4,-0.007,0.013,-0.02
227977,1.446,-0.297,-9.383,-0.007,0.013,-0.02
228080,1.444,-0.299,-9.4,-0.007,0.013,-0.02
228183,1.448,-0.299,-9.402,-0.007,0.013,-0.02
228286,1.444,-0.309,-9.404,-0.007,0.012,-0.02
228389,1.444,-0.302,-9.395,-0.007,0.012,-0.02
228492,1.446,-0.309,-9.39,-0.007,0.012,-0.02
228595,1.437,-0.299,-9.397,-0.007,0.012,-0.02
228698,1.437,-0.302,-9.392,-0.007,0.012,-0.02
228801,1.446,-0.304,-9.395,-0.007,0.013,-0.02
228904,1.441,-0.302,-9.39,-0.006,0.012,-0.02
229007,1.439,-0.299,-9.412,-0.006,0.012,-0.02
229110,1.456,-0.304,-9.38,-0.007,0.012,-0.019
229213,1.444,-0.294,-9.39,-0.007,0.012,-0.02
229316,1.446,-0.304,-9.38,-0.007,0.012,-0.02
229419,1.446,-0.302,-9.392,-0.007,0.013,-0.02
229522,1.456,-0.302,-9.392,-0.007,0.012,-0.019
229625,1.446,-0.309,-9.388,-0.007,0.013,-0.02
229728,1.446,-0.302,-9.39,-0.007,0.012,-0.02
229831,1.434,-0.306,-9.388,-0.007,0.013,-0.02
229934,1.444,-0.306,-9.388,-0.006,0.012,-0.02
230037,1.439,-0.299,-9.397,-0.007,0.012,-0.02
230140,1.444,-0.309,-9.395,-0.007,0.013,-0.02
230243,1.448,-0.304,-9.397,-0.007,0.012,-0.02
230346,1.448,-0.302,-9.383,-0.007,0.012,-0.02
230449,1.453,-0.299,-9.404,-0.007,0.012,-0.02
230552,1.441,-0.302,-9.385,-0.007,0.012,-0.019
230655,1.444,-0.311,-9.397,-0.007,0.012,-0.02
230758,1.444,-0.302,-9.397,-0.007,0.012,-0.02
230861,1.444,-0.304,-9.392,-0.007,0.012,-0.02
230964,1.437,-0.304,-9.4,-0.007,0.012,-0.02
231067,1.451,-0.309,-9.397,-0.007,0.012,-0.02
231170,1.451,-0.304,-9.397,-0.007,0.012,-0.02
231273,1.456,-0.304,-9.392,-0.007,0.013,-0.02
231376,1.448,-0.304,-9.395,-0.007,0.012,-0.02
231479,1.441,-0.309,-9.392,-0.007,0.012,-0.02
231582,1.444,-0.297,-9.383,-0.007,0.013,-0.02
231685,1.446,-0.299,-9.395,-0.007,0.013,-0.02
231788,1.441,-0.299,-9.392,-0.007,0.012,-0.02
231891,1.439,-0.306,-9.39,-0.007,0.013,-0.02
231994,1.448,-0.299,-9.402,-0.007,0.012,-0.02
232097,1.451,-0.297,-9.388,-0.007,0.012,-0.02
232200,1.437,-0.311,-9.402,-0.007,0.013,-0.02
232303,1.456,-0.302,-9.397,-0.007,0.012,-0.021
232406,1.448,-0.302,-9.395,-0.007,0.012,-0.02
232509,1.451,-0.304,-9.404,-0.007,0.012,-0.02
232612,1.441,-0.304,-9.412,-0.007,0.013,-0.02
232715,1.458,-0.297,-9.4,-0.007,0.012,-0.02
232818,1.439,-0.299,-9.388,-0.007,0.013,-0.02
232921,1.448,-0.302,-9.388,-0.007,0.012,-0.02
233024,1.453,-0.302,-9.392,-0.007,0.012,-0.019
233127,1.451,-0.306,-9.4,-0.007,0.012,-0.02
233230,1.446,-0.304,-9.39,-0.007,0.012,-0.02
233333,1.444,-0.304,-9.402,-0.006,0.013,-0.02
233436,1.446,-0.297,-9.407,-0.007,0.012,-0.02
233539,1.448,-0.302,-9.397,-0.007,0.013,-0.02
233642,1.437,-0.294,-9.392,-0.006,0.012,-0.02
233745,1.439,-0.304,-9.407,-0.007,0.012,-0.02
233848,1.434,-0.309,-9.392,-0.007,0.012,-0.02
233951,1.446,-0.299,-9.39,-0.007,0.012,-0.02
234054,1.444,-0.321,-9.383,-0.007,0.012,-0.02
234157,1.448,-0.302,-9.38,-0.007,0.012,-0.02
234260,1.437,-0.294,-9.4,-0.007,0.012,-0.02
234363,1.451,-0.309,-9.383,-0.007,0.012,-0.02
234466,1.439,-0.304,-9.388,-0.007,0.012,-0.02
234569,1.444,-0.309,-9.4,-0.007,0.012,-0.02
234672,1.448,-0.297,-9.392,-0.007,0.012,-0.02
234775,1.448,-0.299,-9.397,-0.007,0.012,-0.019
234878,1.448,-0.304,-9.397,-0.007,0.012,-0.02
234981,1.444,-0.299,-9.39,-0.007,0.012,-0.02
235084,1.448,-0.29,-9.395,-0.007,0.012,-0.02
235187,1.448,-0.309,-9.407,-0.007,0.012,-0.02
235290,1.448,-0.304,-9.409,-0.007,0.012,-0.02
235393,1.451,-0.297,-9.385,-0.007,0.012,-0.02
235496,1.456,-0.297,-9.397,-0.006,0.012,-0.021
235599,1.446,-0.297,-9.412,-0.007,0.012,-0.02
235702,1.453,-0.304,-9.39,-0.007,0.012,-0.02
235805,1.439,-0.297,-9.385,-0.007,0.012,-0.021
235908,1.444,-0.302,-9.397,-0.007,0.012,-0.02
236011,1.446,-0.309,-9.4,-0.007,0.012,-0.02
236114,1.451,-0.292,-9.404,-0.007,0.012,-0.02
236217,1.451,-0.297,-9.397,-0.007,0.012,-0.02
236320,1.439,-0.304,-9.397,-0.007,0.012,-0.02
236423,1.434,-0.309,-9.392,-0.007,0.012,-0.02
236526,1.446,-0.311,-9.388,-0.007,0.012,-0.02
236629,1.448,-0.311,-9.383,-0.007,0.012,-0.019
236732,1.448,-0.304,-9.395,-0.007,0.012,-0.02
236835,1.448,-0.302,-9.392,-0.007,0.012,-0.021
236938,1.444,-0.294,-9.4,-0.007,0.013,-0.021
237041,1.446,-0.306,-9.388,-0.006,0.012,-0.02
237144,1.451,-0.304,-9.404,-0.007,0.012,-0.019
237247,1.446,-0.304,-9.388,-0.007,0.012,-0.02
237350,1.451,-0.314,-9.4,-0.007,0.012,-0.02
237453,1.446,-0.302,-9.407,-0.007,0.012,-0.02
237556,1.444,-0.302,-9.397,-0.007,0.012,-0.02
237659,1.444,-0.297,-9.395,-0.007,0.012,-0.02
237762,1.446,-0.309,-9.378,-0.007,0.012,-0.02
237865,1.446,-0.306,-9.395,-0.007,0.012,-0.02
237968,1.437,-0.304,-9.39,-0.007,0.012,-0.019
238071,1.451,-0.311,-9.404,-0.007,0.012,-0.02
238174,1.439,-0.309,-9.397,-0.007,0.012,-0.02
238277,1.448,-0.309,-9.404,-0.007,0.012,-0.02
238380,1.441,-0.302,-9.388,-0.008,0.011,-0.02
238483,1.456,-0.304,-9.4,-0.007,0.012,-0.02
238586,1.448,-0.299,-9.39,-0.007,0.012,-0.021
238689,1.446,-0.306,-9.39,-0.007,0.013,-0.02
238792,1.448,-0.306,-9.388,-0.007,0.012,-0.019
238895,1.446,-0.304,-9.383,-0.007,0.013,-0.019
238998,1.446,-0.304,-9.385,-0.007,0.012,-0.019
239101,1.441,-0.297,-9.397,-0.007,0.012,-0.02
239204,1.451,-0.306,-9.395,-0.007,0.013,-0.02
239307,1.446,-0.302,-9.39,-0.007,0.012,-0.02
239410,1.453,-0.299,-9.38,-0.007,0.012,-0.021
239513,1.444,-0.311,-9.388,-0.007,0.012,-0.02
239616,1.453,-0.304,-9.39,-0.006,0.012,-0.02
239719,1.446,-0.297,-9.388,-0.007,0.012,-0.02
239822,1.448,-0.304,-9.402,-0.006,0.012,-0.021
239925,1.451,-0.306,-9.4,-0.006,0.012,-0.02
240028,1.441,-0.316,-9.388,-0.007,0.012,-0.02
240131,1.446,-0.297,-9.388,-0.006,0.012,-0.02
240234,1.458,-0.314,-9.395,-0.006,0.012,-0.021
240337,1.453,-0.299,-9.414,-0.007,0.012,-0.02
240440,1.456,-0.299,-9.385,-0.006,0.012,-0.02
240543,1.456,-0.292,-9.392,-0.006,0.012,-0.02
240646,1.451,-0.306,-9.388,-0.007,0.012,-0.02
240749,1.448,-0.302,-9.385,-0.007,0.012,-0.02
240852,1.448,-0.292,-9.397,-0.007,0.012,-0.02
240955,1.448,-0.294,-9.39,-0.007,0.012,-0.02
241058,1.441,-0.304,-9.4,-0.007,0.013,-0.02
241161,1.451,-0.311,-9.395,-0.007,0.012,-0.02
241264,1.451,-0.306,-9.4,-0.007,0.012,-0.02
241367,1.456,-0.311,-9.388,-0.007,0.012,-0.02
241470,1.446,-0.304,-9.385,-0.007,0.012,-0.02
241573,1.439,-0.302,-9.388,-0.007,0.013,-0.021
241676,1.451,-0.302,-9.395,-0.007,0.013,-0.02
241779,1.451,-0.304,-9.397,-0.007,0.013,-0.02
241882,1.437,-0.297,-9.378,-0.006,0.013,-0.02
241985,1.451,-0.294,-9.395,-0.007,0.012,-0.02
242088,1.489,-0.304,-9.412,-0.008,0.012,-0.021
242191,1.46,-0.306,-9.4,-0.007,0.013,-0.02
242294,1.453,-0.309,-9.383,-0.007,0.012,-0.02
242397,1.444,-0.304,-9.395,-0.007,0.013,-0.02
242500,1.451,-0.309,-9.397,-0.007,0.012,-0.02
242603,1.444,-0.306,-9.392,-0.007,0.013,-0.02
242706,1.444,-0.304,-9.397,-0.007,0.012,-0.02
242809,1.446,-0.304,-9.385,-0.007,0.012,-0.02
242912,1.448,-0.299,-9.38,-0.007,0.012,-0.02
243015,1.448,-0.297,-9.38,-0.007,0.012,-0.02
243118,1.439,-0.302,-9.39,-0.007,0.012,-0.02
243221,1.444,-0.294,-9.409,-0.007,0.012,-0.02
243324,1.456,-0.318,-9.4,-0.007,0.012,-0.02
243427,1.444,-0.299,-9.39,-0.007,0.012,-0.02
243530,1.453,-0.302,-9.409,-0.007,0.013,-0.02
243633,1.448,-0.306,-9.388,-0.007,0.012,-0.021
243736,1.444,-0.306,-9.392,-0.007,0.012,-0.02
243839,1.458,-0.314,-9.388,-0.007,0.012,-0.02
243942,1.458,-0.309,-9.402,-0.007,0.012,-0.02
244045,1.448,-0.316,-9.38,-0.007,0.012,-0.02
244148,1.448,-0.292,-9.4,-0.008,0.012,-0.02
244251,1.439,-0.299,-9.395,-0.007,0.012,-0.02
244354,1.525,-0.304,-9.373,0.004,0.187,-0.023
244457,1.669,-0.323,-9.359,-0.005,0.038,-0.021
244560,1.666,-0.321,-9.364,-0.007,0.014,-0.02
244663,1.662,-0.316,-9.359,-0.007,0.012,-0.021
244766,1.666,-0.309,-9.349,-0.006,0.013,-0.02
244869,1.662,-0.328,-9.345,-0.007,0.012,-0.02
244972,1.669,-0.321,-9.345,-0.006,0.013,-0.02
245075,1.662,-0.318,-9.357,-0.007,0.012,-0.02
245178,1.662,-0.321,-9.352,-0.007,0.012,-0.02
245281,1.662,-0.316,-9.342,-0.007,0.012,-0.02
245384,1.666,-0.328,-9.357,-0.006,0.012,-0.02
245487,1.671,-0.311,-9.366,-0.007,0.012,-0.021
245590,1.664,-0.318,-9.371,-0.007,0.012,-0.02
245693,1.669,-0.299,-9.359,-0.007,0.012,-0.02
245796,1.666,-0.311,-9.369,-0.007,0.013,-0.02
245899,1.664,-0.314,-9.349,-0.007,0.013,-0.019
246002,1.669,-0.318,-9.357,-0.007,0.012,-0.02
246105,1.664,-0.321,-9.361,-0.007,0.012,-0.02
246208,1.669,-0.318,-9.354,-0.007,0.012,-0.02
246311,1.657,-0.314,-9.366,-0.007,0.012,-0.02
246414,1.669,-0.318,-9.357,-0.007,0.013,-0.02
246517,1.669,-0.314,-9.361,-0.006,0.012,-0.019
246620,1.664,-0.311,-9.357,-0.007,0.013,-0.02
246723,1.657,-0.323,-9.354,-0.007,0.012,-0.02
246826,1.664,-0.309,-9.357,-0.007,0.012,-0.02
246929,1.666,-0.318,-9.359,-0.007,0.012,-0.019
247032,1.669,-0.314,-9.366,-0.007,0.012,-0.02
247135,1.669,-0.316,-9.354,-0.007,0.012,-0.02
247238,1.662,-0.323,-9.349,-0.007,0.012,-0.021
247341,1.664,-0.311,-9.364,-0.007,0.012,-0.02
247444,1.659,-0.311,-9.359,-0.007,0.012,-0.02
247547,1.664,-0.318,-9.345,-0.007,0.012,-0.021
247650,1.664,-0.314,-9.352,-0.007,0.013,-0.02
247753,1.671,-0.311,-9.352,-0.007,0.013,-0.02
247856,1.666,-0.309,-9.354,-0.007,0.012,-0.02
247959,1.664,-0.316,-9.354,-0.007,0.012,-0.02
248062,1.669,-0.311,-9.361,-0.007,0.012,-0.02
248165,1.674,-0.323,-9.349,-0.007,0.013,-0.019
248268,1.657,-0.311,-9.349,-0.007,0.011,-0.02
248371,1.666,-0.316,-9.369,-0.007,0.012,-0.02
248474,1.669,-0.311,-9.342,-0.007,0.012,-0.02
248577,1.669,-0.314,-9.357,-0.007,0.012,-0.02
248680,1.662,-0.326,-9.342,-0.007,0.012,-0.02
248783,1.664,-0.306,-9.352,-0.007,0.012,-0.02
248886,1.664,-0.318,-9.345,-0.007,0.012,-0.02
248989,1.664,-0.316,-9.352,-0.007,0.012,-0.02
249092,1.669,-0.311,-9.34,-0.007,0.012,-0.02
249195,1.662,-0.316,-9.357,-0.007,0.012,-0.02
249298,1.669,-0.316,-9.357,-0.007,0.012,-0.02
249401,1.674,-0.309,-9.347,-0.007,0.012,-0.02
249504,1.669,-0.311,-9.357,-0.007,0.012,-0.02
249607,1.666,-0.316,-9.352,-0.007,0.012,-0.02
249710,1.671,-0.318,-9.34,-0.007,0.012,-0.02
249813,1.654,-0.311,-9.359,-0.007,0.012,-0.02
249916,1.664,-0.304,-9.366,-0.007,0.012,-0.02
250019,1.666,-0.311,-9.357,-0.007,0.012,-0.02
250122,1.676,-0.321,-9.354,-0.007,0.013,-0.02
250225,1.666,-0.314,-9.359,-0.007,0.012,-0.021
250328,1.666,-0.306,-9.352,-0.007,0.012,-0.02
250431,1.662,-0.314,-9.354,-0.007,0.012,-0.02
250534,1.669,-0.321,-9.349,-0.007,0.012,-0.02
250637,1.662,-0.311,-9.357,-0.006,0.012,-0.02
250740,1.671,-0.318,-9.342,-0.007,0.013,-0.02
250843,1.666,-0.309,-9.345,-0.006,0.012,-0.02
250946,1.657,-0.318,-9.347,-0.007,0.012,-0.02
251049,1.671,-0.326,-9.357,-0.007,0.012,-0.02
251152,1.671,-0.309,-9.359,-0.007,0.013,-0.02
251255,1.674,-0.318,-9.352,-0.006,0.013,-0.02
251358,1.666,-0.306,-9.349,-0.007,0.013,-0.021
251461,1.671,-0.316,-9.364,-0.007,0.012,-0.019
251564,1.676,-0.323,-9.342,-0.007,0.012,-0.02
251667,1.666,-0.314,-9.361,-0.007,0.012,-0.02
251770,1.664,-0.316,-9.359,-0.007,0.012,-0.02
251873,1.659,-0.314,-9.354,-0.007,0.012,-0.02
251976,1.664,-0.306,-9.354,-0.007,0.013,-0.02
252079,1.662,-0.306,-9.354,-0.007,0.012,-0.019
252182,1.671,-0.314,-9.359,-0.007,0.012,-0.02
252285,1.671,-0.323,-9.349,-0.007,0.012,-0.02
252388,1.666,-0.314,-9.359,-0.007,0.013,-0.02
252491,1.669,-0.318,-9.357,-0.007,0.012,-0.02
252594,1.676,-0.311,-9.345,-0.007,0.012,-0.02
252697,1.664,-0.316,-9.357,-0.007,0.012,-0.02
252800,1.676,-0.323,-9.357,-0.007,0.012,-0.02
252903,1.676,-0.333,-9.342,-0.007,0.012,-0.02
253006,1.666,-0.318,-9.354,-0.007,0.013,-0.021
253109,1.657,-0.316,-9.342,-0.006,0.012,-0.02
253212,1.664,-0.314,-9.354,-0.007,0.012,-0.02
253315,1.678,-0.318,-9.349,-0.007,0.012,-0.02
253418,1.671,-0.309,-9.359,-0.007,0.012,-0.02
253521,1.674,-0.311,-9.352,-0.007,0.012,-0.02
253624,1.666,-0.321,-9.361,-0.007,0.012,-0.02
253727,1.664,-0.311,-9.335,-0.006,0.013,-0.02
253830,1.671,-0.328,-9.345,-0.006,0.012,-0.02
253933,1.666,-0.309,-9.354,-0.007,0.012,-0.02
254036,1.657,-0.316,-9.352,-0.007,0.012,-0.021
254139,1.669,-0.316,-9.347,-0.007,0.012,-0.02
254242,1.669,-0.318,-9.347,-0.007,0.012,-0.02
254345,1.669,-0.318,-9.347,-0.007,0.012,-0.02
254448,1.666,-0.314,-9.349,-0.007,0.012,-0.02
254551,1.659,-0.316,-9.361,-0.007,0.012,-0.02
254654,1.674,-0.316,-9.349,-0.007,0.013,-0.02
254757,1.674,-0.316,-9.347,-0.007,0.012,-0.019
254860,1.662,-0.318,-9.345,-0.007,0.012,-0.019
254963,1.671,-0.321,-9.347,-0.006,0.012,-0.02
255066,1.669,-0.309,-9.364,-0.007,0.013,-0.02
255169,1.664,-0.321,-9.342,-0.007,0.012,-0.02
255272,1.666,-0.321,-9.366,-0.007,0.012,-0.02
255375,1.664,-0.316,-9.352,-0.007,0.012,-0.02
255478,1.678,-0.316,-9.354,-0.007,0.012,-0.02
255581,1.671,-0.316,-9.359,-0.007,0.012,-0.02
255684,1.662,-0.316,-9.364,-0.007,0.012,-0.02
255787,1.669,-0.318,-9.359,-0.007,0.012,-0.02
255890,1.676,-0.326,-9.349,-0.006,0.012,-0.02
255993,1.674,-0.318,-9.354,-0.007,0.012,-0.019
256096,1.662,-0.311,-9.345,-0.007,0.012,-0.02
256199,1.674,-0.328,-9.34,-0.007,0.012,-0.02
256302,1.662,-0.321,-9.361,-0.007,0.012,-0.02
256405,1.657,-0.314,-9.354,-0.006,0.012,-0.019
256508,1.664,-0.316,-9.34,-0.007,0.012,-0.02
256611,1.669,-0.318,-9.354,-0.007,0.012,-0.02
256714,1.657,-0.318,-9.345,-0.007,0.012,-0.02
256817,1.664,-0.316,-9.366,-0.007,0.012,-0.02
256920,1.662,-0.314,-9.361,-0.007,0.012,-0.02
257023,1.666,-0.314,-9.349,-0.007,0.012,-0.02
257126,1.664,-0.316,-9.354,-0.007,0.012,-0.02
257229,1.666,-0.306,-9.364,-0.007,0.012,-0.02
257332,1.674,-0.316,-9.352,-0.007,0.012,-0.019
257435,1.662,-0.326,-9.349,-0.007,0.013,-0.02
257538,1.664,-0.323,-9.361,-0.007,0.012,-0.02
257641,1.674,-0.318,-9.364,-0.007,0.012,-0.02
257744,1.674,-0.299,-9.357,-0.008,0.013,-0.02
257847,1.662,-0.316,-9.354,-0.007,0.012,-0.02
257950,1.666,-0.321,-9.349,-0.007,0.012,-0.02
258053,1.664,-0.318,-9.352,-0.006,0.012,-0.021
258156,1.669,-0.316,-9.359,-0.007,0.012,-0.02
258259,1.666,-0.309,-9.359,-0.007,0.012,-0.02
258362,1.666,-0.314,-9.357,-0.007,0.013,-0.02
258465,1.666,-0.318,-9.349,-0.007,0.013,-0.02
258568,1.674,-0.323,-9.366,-0.007,0.012,-0.019
258671,1.664,-0.323,-9.359,-0.007,0.012,-0.02
258774,1.662,-0.323,-9.371,-0.007,0.012,-0.019
258877,1.666,-0.311,-9.352,-0.007,0.012,-0.02
258980,1.662,-0.318,-9.352,-0.007,0.012,-0.02
259083,1.669,-0.326,-9.345,-0.007,0.012,-0.02
259186,1.676,-0.318,-9.359,-0.007,0.012,-0.02
259289,1.674,-0.318,-9.359,-0.007,0.012,-0.021
259392,1.666,-0.321,-9.352,-0.006,0.013,-0.02
259495,1.664,-0.318,-9.359,-0.007,0.012,-0.02
259598,1.674,-0.314,-9.347,-0.007,0.012,-0.02
259701,1.666,-0.311,-9.354,-0.007,0.012,-0.02
259804,1.657,-0.304,-9.366,-0.007,0.012,-0.021
259907,1.676,-0.314,-9.345,-0.007,0.013,-0.02
260010,1.671,-0.316,-9.347,-0.007,0.012,-0.02
260113,1.662,-0.302,-9.359,-0.007,0.013,-0.02
260216,1.662,-0.326,-9.361,-0.007,0.012,-0.02
260319,1.674,-0.314,-9.359,-0.007,0.013,-0.02
260422,1.662,-0.316,-9.371,-0.007,0.013,-0.02
260525,1.662,-0.311,-9.349,-0.007,0.013,-0.02
260628,1.664,-0.316,-9.345,-0.007,0.012,-0.02
260731,1.664,-0.311,-9.352,-0.007,0.012,-0.02
260834,1.664,-0.321,-9.345,-0.007,0.012,-0.02
260937,1.671,-0.316,-9.359,-0.007,0.012,-0.02
261040,1.664,-0.314,-9.337,-0.007,0.012,-0.02
261143,1.666,-0.314,-9.347,-0.007,0.012,-0.02
261246,1.664,-0.323,-9.345,-0.007,0.013,-0.02
261349,1.669,-0.326,-9.345,-0.007,0.012,-0.02
261452,1.676,-0.311,-9.345,-0.007,0.012,-0.02
261555,1.657,-0.321,-9.34,-0.007,0.012,-0.021
261658,1.659,-0.309,-9.345,-0.007,0.012,-0.02
261761,1.669,-0.309,-9.364,-0.006,0.012,-0.02
261864,1.657,-0.323,-9.347,-0.007,0.012,-0.02
261967,1.669,-0.311,-9.347,-0.007,0.012,-0.02
262070,1.662,-0.311,-9.371,-0.007,0.012,-0.02
262173,1.669,-0.316,-9.359,-0.007,0.012,-0.02
262276,1.674,-0.318,-9.349,-0.007,0.013,-0.02
262379,1.671,-0.314,-9.357,-0.007,0.012,-0.02
262482,1.674,-0.318,-9.357,-0.007,0.012,-0.02
262585,1.659,-0.323,-9.352,-0.007,0.012,-0.02
262688,1.666,-0.316,-9.359,-0.007,0.012,-0.02
262791,1.659,-0.318,-9.354,-0.007,0.012,-0.02
262894,1.683,-0.306,-9.359,-0.007,0.012,-0.02
262997,1.659,-0.321,-9.345,-0.007,0.012,-0.019
263100,1.666,-0.314,-9.347,-0.007,0.012,-0.019
263203,1.666,-0.321,-9.349,-0.006,0.013,-0.02
263306,1.657,-0.318,-9.366,-0.007,0.012,-0.02
263409,1.664,-0.314,-9.357,-0.007,0.013,-0.02
263512,1.669,-0.316,-9.357,-0.006,0.012,-0.02
263615,1.666,-0.318,-9.349,-0.007,0.012,-0.02
263718,1.666,-0.314,-9.352,-0.007,0.013,-0.02
263821,1.659,-0.318,-9.347,-0.007,0.012,-0.02
263924,1.659,-0.321,-9.361,-0.007,0.012,-0.021
264027,1.666,-0.316,-9.347,-0.007,0.012,-0.02
264130,1.659,-0.321,-9.349,-0.007,0.012,-0.02
264233,1.662,-0.306,-9.349,-0.007,0.012,-0.02
264336,1.803,-0.342,-9.397,-0.057,-0.77,-0.017
264439,0.721,-0.263,-9.431,-0.02,-0.241,-0.016
264542,0.785,-0.249,-9.486,-0.007,0.004,-0.02
264645,0.783,-0.268,-9.498,-0.007,0.012,-0.02
264748,0.773,-0.261,-9.476,-0.007,0.012,-0.021
264851,0.776,-0.259,-9.469,-0.007,0.012,-0.019
264954,0.776,-0.263,-9.481,-0.007,0.012,-0.02
265057,0.766,-0.261,-9.471,-0.007,0.012,-0.02
265160,0.785,-0.266,-9.486,-0.007,0.012,-0.02
265263,0.773,-0.268,-9.481,-0.006,0.012,-0.02
265366,0.783,-0.259,-9.471,-0.007,0.013,-0.02
265469,0.79,-0.263,-9.476,-0.007,0.012,-0.02
265572,0.781,-0.268,-9.476,-0.007,0.012,-0.019
265675,0.778,-0.261,-9.467,-0.007,0.012,-0.02
265778,0.781,-0.266,-9.481,-0.007,0.012,-0.02
265881,0.778,-0.273,-9.467,-0.007,0.012,-0.02
265984,0.769,-0.263,-9.462,-0.007,0.013,-0.02
266087,0.785,-0.263,-9.471,-0.007,0.013,-0.02
266190,0.769,-0.263,-9.481,-0.006,0.012,-0.02
266293,0.788,-0.263,-9.467,-0.006,0.012,-0.02
266396,0.781,-0.268,-9.469,-0.007,0.012,-0.02
266499,0.788,-0.256,-9.474,-0.007,0.012,-0.02
266602,0.781,-0.268,-9.491,-0.007,0.012,-0.019
266705,0.785,-0.261,-9.467,-0.007,0.013,-0.02
266808,0.781,-0.261,-9.459,-0.007,0.013,-0.019
266911,0.769,-0.263,-9.467,-0.007,0.012,-0.019
267014,0.785,-0.263,-9.471,-0.007,0.012,-0.02
267117,0.778,-0.263,-9.467,-0.007,0.012,-0.02
267220,0.613,-0.256,-9.483,-0.023,-0.246,-0.017
267323,0.515,-0.244,-9.495,-0.008,-0.006,-0.02
267426,0.52,-0.261,-9.488,-0.007,0.011,-0.02
267529,0.524,-0.242,-9.491,-0.007,0.012,-0.02
267632,0.515,-0.239,-9.486,-0.007,0.012,-0.02
267735,0.524,-0.251,-9.5,-0.007,0.013,-0.02
267838,0.52,-0.239,-9.491,-0.007,0.012,-0.02
267941,0.522,-0.244,-9.5,-0.007,0.012,-0.02
268044,0.522,-0.251,-9.483,-0.007,0.012,-0.02
268147,0.527,-0.251,-9.51,-0.007,0.012,-0.019
268250,0.517,-0.254,-9.507,-0.007,0.012,-0.02
268353,0.522,-0.254,-9.488,-0.007,0.012,-0.02
268456,0.52,-0.232,-9.495,-0.007,0.012,-0.019
268559,0.52,-0.251,-9.503,-0.007,0.012,-0.02
268662,0.527,-0.247,-9.493,-0.007,0.012,-0.02
268765,0.529,-0.256,-9.483,-0.007,0.012,-0.02
268868,0.52,-0.256,-9.488,-0.007,0.013,-0.02
268971,0.529,-0.247,-9.507,-0.007,0.012,-0.019
269074,0.515,-0.247,-9.493,-0.007,0.012,-0.02
269177,0.52,-0.251,-9.486,-0.007,0.012,-0.021
269280,0.515,-0.237,-9.486,-0.007,0.013,-0.02
269383,0.515,-0.247,-9.5,-0.007,0.012,-0.02
269486,0.52,-0.249,-9.491,-0.007,0.012,-0.02
269589,0.524,-0.249,-9.498,-0.007,0.012,-0.02
269692,0.517,-0.254,-9.498,-0.007,0.012,-0.02
269795,0.512,-0.244,-9.495,-0.007,0.012,-0.02
269898,0.52,-0.244,-9.493,-0.007,0.012,-0.02
270001,0.522,-0.249,-9.493,-0.007,0.012,-0.02
270104,0.52,-0.249,-9.495,-0.007,0.012,-0.019
270207,0.524,-0.251,-9.486,-0.007,0.012,-0.02
270310,0.52,-0.244,-9.491,-0.007,0.012,-0.02
270413,0.517,-0.242,-9.5,-0.007,0.012,-0.021
270516,0.517,-0.249,-9.5,-0.007,0.012,-0.021
270619,0.522,-0.251,-9.493,-0.007,0.012,-0.02
270722,0.522,-0.249,-9.483,-0.007,0.012,-0.02
270825,0.515,-0.249,-9.493,-0.007,0.012,-0.02
270928,0.532,-0.259,-9.495,-0.007,0.012,-0.02
271031,0.515,-0.247,-9.491,-0.007,0.012,-0.02
271134,0.52,-0.232,-9.503,-0.007,0.012,-0.02
271237,0.52,-0.247,-9.503,-0.007,0.012,-0.02
