time (ms),acceleration x,acceleration y,acceleration z,gyro x,gyro y,gyro z
552,2.193,-0.189,-9.182,-0.004,0.013,-0.019
655,2.205,-0.196,-9.21,-0.004,0.014,-0.019
758,2.203,-0.194,-9.201,-0.004,0.013,-0.019
861,2.207,-0.189,-9.208,-0.005,0.014,-0.019
964,2.215,-0.194,-9.199,-0.004,0.013,-0.019
1067,2.222,-0.199,-9.201,-0.004,0.013,-0.019
1170,2.21,-0.189,-9.203,-0.004,0.013,-0.019
1273,2.21,-0.192,-9.199,-0.004,0.013,-0.019
1376,2.207,-0.204,-9.191,-0.004,0.013,-0.019
1479,2.205,-0.199,-9.194,-0.004,0.013,-0.019
1582,2.203,-0.194,-9.194,-0.004,0.014,-0.019
1685,2.205,-0.201,-9.199,-0.004,0.013,-0.019
1788,2.219,-0.196,-9.199,-0.004,0.013,-0.019
1891,2.222,-0.189,-9.199,-0.004,0.013,-0.019
1994,2.21,-0.196,-9.194,-0.004,0.013,-0.019
2097,2.215,-0.189,-9.206,-0.004,0.013,-0.019
2200,2.21,-0.199,-9.203,-0.004,0.013,-0.019
2303,2.207,-0.194,-9.199,-0.004,0.013,-0.019
2406,2.217,-0.199,-9.196,-0.004,0.013,-0.019
2509,2.2,-0.189,-9.191,-0.004,0.013,-0.019
2612,2.21,-0.194,-9.213,-0.004,0.013,-0.019
2715,2.203,-0.184,-9.213,-0.004,0.013,-0.019
2818,2.212,-0.196,-9.201,-0.004,0.013,-0.019
2921,2.215,-0.204,-9.206,-0.004,0.013,-0.019
3024,2.21,-0.199,-9.208,-0.004,0.013,-0.019
3127,2.21,-0.196,-9.201,-0.004,0.013,-0.019
3230,2.215,-0.194,-9.196,-0.004,0.013,-0.019
3333,2.21,-0.199,-9.196,-0.004,0.013,-0.019
3436,2.21,-0.192,-9.21,-0.003,0.013,-0.019
3539,2.2,-0.201,-9.201,-0.003,0.013,-0.019
3642,2.205,-0.192,-9.213,-0.004,0.013,-0.019
3745,2.212,-0.194,-9.196,-0.004,0.013,-0.019
3848,2.2,-0.206,-9.201,-0.004,0.013,-0.019
3951,2.203,-0.206,-9.21,-0.004,0.013,-0.019
4054,2.212,-0.199,-9.194,-0.005,0.013,-0.019
4157,2.212,-0.201,-9.199,-0.004,0.013,-0.019
4260,2.215,-0.204,-9.196,-0.004,0.013,-0.019
4363,2.207,-0.194,-9.21,-0.004,0.013,-0.019
4466,2.215,-0.199,-9.201,-0.004,0.013,-0.019
4569,2.205,-0.192,-9.206,-0.004,0.013,-0.019
4672,2.205,-0.199,-9.206,-0.004,0.013,-0.019
4775,2.215,-0.199,-9.199,-0.004,0.013,-0.019
4878,2.212,-0.194,-9.201,-0.004,0.013,-0.019
4981,2.21,-0.187,-9.189,-0.003,0.013,-0.019
5084,2.21,-0.196,-9.196,-0.003,0.013,-0.019
5187,2.198,-0.184,-9.189,-0.003,0.014,-0.019
5290,2.203,-0.199,-9.206,-0.004,0.014,-0.019
5393,2.198,-0.206,-9.201,-0.004,0.013,-0.019
5496,2.219,-0.211,-9.206,-0.005,0.014,-0.02
5599,2.215,-0.206,-9.203,-0.004,0.014,-0.019
5702,2.217,-0.187,-9.215,-0.004,0.013,-0.019
5805,2.2,-0.187,-9.189,-0.003,0.012,-0.019
5908,2.198,-0.189,-9.182,-0.003,0.014,-0.019
6011,2.203,-0.194,-9.194,-0.003,0.013,-0.019
6114,2.193,-0.208,-9.203,-0.004,0.013,-0.019
6217,2.217,-0.194,-9.196,-0.004,0.013,-0.019
6320,2.21,-0.194,-9.213,-0.003,0.013,-0.019
6423,2.217,-0.189,-9.206,-0.004,0.013,-0.019
6526,2.227,-0.189,-9.206,-0.004,0.013,-0.019
6629,2.215,-0.192,-9.199,-0.004,0.013,-0.019
6732,2.203,-0.184,-9.215,-0.004,0.013,-0.019
6835,2.207,-0.206,-9.199,-0.004,0.013,-0.019
6938,2.2,-0.189,-9.196,-0.004,0.013,-0.019
7041,2.2,-0.194,-9.196,-0.004,0.013,-0.019
7144,2.207,-0.184,-9.199,-0.003,0.013,-0.019
7247,2.207,-0.206,-9.194,-0.004,0.013,-0.019
7350,2.219,-0.187,-9.201,-0.004,0.013,-0.019
7453,2.212,-0.201,-9.191,-0.004,0.013,-0.019
7556,2.212,-0.206,-9.21,-0.004,0.013,-0.02
7659,2.207,-0.194,-9.206,-0.004,0.013,-0.019
7762,2.217,-0.189,-9.213,-0.003,0.013,-0.019
7865,2.21,-0.189,-9.191,-0.004,0.013,-0.019
7968,2.212,-0.194,-9.199,-0.004,0.013,-0.018
8071,2.21,-0.201,-9.201,-0.004,0.013,-0.019
8174,2.207,-0.184,-9.208,-0.004,0.013,-0.02
8277,2.207,-0.199,-9.22,-0.004,0.013,-0.019
8380,2.215,-0.201,-9.206,-0.004,0.013,-0.02
8483,2.21,-0.199,-9.201,-0.004,0.013,-0.02
8586,2.21,-0.184,-9.203,-0.004,0.013,-0.019
8689,2.21,-0.194,-9.203,-0.004,0.013,-0.019
8792,2.205,-0.196,-9.196,-0.004,0.013,-0.019
8895,2.195,-0.204,-9.199,-0.004,0.013,-0.019
8998,2.212,-0.204,-9.182,-0.003,0.013,-0.02
9101,2.207,-0.196,-9.187,-0.004,0.013,-0.02
9204,2.215,-0.201,-9.187,-0.004,0.013,-0.019
9307,2.215,-0.196,-9.199,-0.004,0.013,-0.019
9410,2.207,-0.199,-9.201,-0.004,0.013,-0.019
9513,2.21,-0.201,-9.208,-0.004,0.013,-0.019
9616,2.212,-0.196,-9.203,-0.004,0.013,-0.019
9719,2.21,-0.206,-9.203,-0.004,0.013,-0.02
9822,2.203,-0.201,-9.189,-0.004,0.013,-0.019
9925,2.21,-0.192,-9.196,-0.004,0.013,-0.02
10028,2.207,-0.199,-9.194,-0.004,0.013,-0.02
10131,2.198,-0.199,-9.194,-0.004,0.013,-0.019
10234,2.207,-0.196,-9.199,-0.004,0.013,-0.019
10337,2.212,-0.194,-9.218,-0.004,0.013,-0.019
10440,2.207,-0.189,-9.203,-0.004,0.013,-0.02
10543,2.21,-0.192,-9.199,-0.004,0.014,-0.019
10646,2.215,-0.196,-9.199,-0.004,0.013,-0.019
10749,2.212,-0.194,-9.199,-0.004,0.013,-0.019
10852,2.21,-0.201,-9.201,-0.004,0.013,-0.018
10955,2.203,-0.196,-9.194,-0.004,0.013,-0.019
11058,2.217,-0.208,-9.203,-0.004,0.013,-0.019
11161,2.219,-0.201,-9.194,-0.004,0.013,-0.019
11264,2.212,-0.192,-9.203,-0.004,0.013,-0.019
11367,2.205,-0.201,-9.21,-0.004,0.013,-0.019
11470,2.2,-0.199,-9.215,-0.004,0.013,-0.019
11573,2.203,-0.194,-9.21,-0.004,0.013,-0.019
11676,2.21,-0.199,-9.199,-0.004,0.013,-0.019
11779,2.215,-0.201,-9.208,-0.004,0.013,-0.019
11882,2.21,-0.196,-9.203,-0.004,0.013,-0.019
11985,2.198,-0.201,-9.196,-0.004,0.013,-0.019
12088,2.21,-0.194,-9.203,-0.003,0.013,-0.019
12191,2.212,-0.199,-9.208,-0.004,0.013,-0.019
12294,2.207,-0.192,-9.215,-0.004,0.013,-0.019
12397,2.21,-0.194,-9.187,-0.003,0.013,-0.019
12500,2.21,-0.199,-9.199,-0.004,0.013,-0.019
12603,2.212,-0.196,-9.208,-0.004,0.013,-0.019
12706,2.205,-0.189,-9.191,-0.004,0.013,-0.019
12809,2.212,-0.194,-9.199,-0.004,0.013,-0.019
12912,2.2,-0.187,-9.208,-0.004,0.013,-0.019
13015,2.21,-0.194,-9.191,-0.004,0.013,-0.019
13118,2.207,-0.196,-9.201,-0.004,0.013,-0.02
13221,2.21,-0.194,-9.21,-0.004,0.013,-0.019
13324,2.215,-0.189,-9.199,-0.004,0.013,-0.019
13427,2.207,-0.194,-9.206,-0.004,0.013,-0.019
13530,2.207,-0.204,-9.203,-0.003,0.013,-0.02
13633,2.21,-0.196,-9.208,-0.004,0.013,-0.019
13736,2.212,-0.196,-9.191,-0.004,0.013,-0.019
13839,2.207,-0.199,-9.208,-0.004,0.013,-0.019
13942,2.212,-0.196,-9.203,-0.003,0.013,-0.019
14045,2.205,-0.192,-9.206,-0.004,0.013,-0.019
14148,2.207,-0.201,-9.206,-0.004,0.013,-0.019
14251,2.2,-0.201,-9.21,-0.004,0.013,-0.019
14354,2.203,-0.194,-9.194,-0.003,0.013,-0.019
14457,2.203,-0.196,-9.196,-0.004,0.013,-0.019
14560,2.203,-0.215,-9.21,-0.004,0.013,-0.019
14663,2.215,-0.192,-9.196,-0.004,0.013,-0.019
14766,2.203,-0.201,-9.215,-0.003,0.013,-0.019
14869,2.207,-0.192,-9.189,-0.004,0.013,-0.019
14972,2.21,-0.199,-9.187,-0.004,0.013,-0.019
15075,2.205,-0.192,-9.199,-0.003,0.013,-0.019
15178,2.207,-0.204,-9.206,-0.004,0.013,-0.019
15281,2.203,-0.199,-9.191,-0.004,0.013,-0.019
15384,2.2,-0.206,-9.203,-0.004,0.013,-0.019
15487,2.21,-0.194,-9.199,-0.004,0.013,-0.019
15590,2.215,-0.196,-9.199,-0.004,0.013,-0.019
15693,2.212,-0.194,-9.191,-0.004,0.012,-0.019
15796,2.2,-0.199,-9.213,-0.004,0.013,-0.019
15899,2.21,-0.196,-9.203,-0.004,0.013,-0.019
16002,2.21,-0.199,-9.201,-0.004,0.013,-0.019
16105,2.207,-0.192,-9.189,-0.004,0.013,-0.019
16208,2.215,-0.199,-9.194,-0.004,0.013,-0.019
16311,2.21,-0.201,-9.194,-0.004,0.013,-0.019
16414,2.203,-0.206,-9.189,-0.004,0.013,-0.019
16517,2.215,-0.201,-9.187,-0.004,0.013,-0.019
16620,2.207,-0.196,-9.201,-0.004,0.013,-0.019
16723,2.215,-0.194,-9.196,-0.004,0.013,-0.019
16826,2.21,-0.199,-9.213,-0.004,0.012,-0.019
16929,2.215,-0.201,-9.189,-0.004,0.013,-0.019
17032,2.212,-0.199,-9.199,-0.004,0.013,-0.019
17135,2.203,-0.196,-9.182,-0.004,0.013,-0.019
17238,2.217,-0.192,-9.21,-0.004,0.013,-0.019
17341,2.205,-0.201,-9.194,-0.004,0.013,-0.019
17444,2.203,-0.199,-9.208,-0.003,0.013,-0.019
17547,2.207,-0.201,-9.21,-0.004,0.013,-0.019
17650,2.207,-0.199,-9.199,-0.004,0.013,-0.019
17753,2.21,-0.201,-9.203,-0.004,0.013,-0.019
17856,2.215,-0.192,-9.191,-0.004,0.013,-0.019
17959,2.205,-0.204,-9.203,-0.004,0.014,-0.019
18062,2.217,-0.192,-9.208,-0.004,0.013,-0.019
18165,2.21,-0.204,-9.208,-0.004,0.013,-0.02
18268,2.21,-0.192,-9.201,-0.004,0.013,-0.02
18371,2.207,-0.201,-9.201,-0.003,0.013,-0.02
18474,2.21,-0.204,-9.199,-0.003,0.013,-0.019
18577,2.198,-0.187,-9.21,-0.003,0.013,-0.019
18680,2.215,-0.199,-9.191,-0.004,0.013,-0.019
18783,2.205,-0.189,-9.196,-0.003,0.013,-0.02
18886,2.207,-0.196,-9.21,-0.004,0.013,-0.019
18989,2.21,-0.204,-9.194,-0.004,0.013,-0.019
19092,2.198,-0.194,-9.196,-0.004,0.013,-0.019
19195,2.203,-0.196,-9.199,-0.004,0.013,-0.019
19298,2.198,-0.175,-9.215,-0.003,0.013,-0.02
19401,2.205,-0.206,-9.199,-0.004,0.013,-0.019
19504,2.2,-0.204,-9.191,-0.004,0.012,-0.019
19607,2.203,-0.199,-9.203,-0.003,0.013,-0.019
19710,2.212,-0.192,-9.191,-0.004,0.013,-0.019
19813,2.21,-0.194,-9.201,-0.004,0.013,-0.019
19916,2.219,-0.192,-9.184,-0.004,0.013,-0.019
20019,2.219,-0.204,-9.21,-0.004,0.013,-0.019
20122,2.212,-0.201,-9.199,-0.004,0.013,-0.019
20225,2.215,-0.196,-9.222,-0.005,0.013,-0.019
20328,2.215,-0.204,-9.215,-0.004,0.013,-0.019
20431,2.207,-0.206,-9.215,-0.004,0.012,-0.019
20534,2.21,-0.189,-9.208,-0.003,0.013,-0.019
20637,2.217,-0.187,-9.203,-0.004,0.013,-0.02
20740,2.188,-0.184,-9.165,-0.003,0.012,-0.019
20843,2.212,-0.18,-9.199,-0.005,0.013,-0.019
20946,2.198,-0.196,-9.189,-0.004,0.013,-0.02
21049,2.203,-0.199,-9.203,-0.004,0.013,-0.018
21152,2.203,-0.196,-9.194,-0.004,0.013,-0.019
21255,2.203,-0.189,-9.179,-0.003,0.013,-0.019
21358,2.205,-0.196,-9.194,-0.003,0.013,-0.019
21461,2.207,-0.201,-9.187,-0.003,0.013,-0.019
21564,2.212,-0.192,-9.203,-0.003,0.013,-0.019
21667,2.224,-0.208,-9.187,-0.004,0.014,-0.019
21770,2.207,-0.199,-9.201,-0.003,0.013,-0.019
21873,2.212,-0.192,-9.196,-0.003,0.013,-0.019
21976,2.205,-0.187,-9.208,-0.004,0.013,-0.019
22079,2.207,-0.199,-9.203,-0.004,0.013,-0.019
22182,2.21,-0.194,-9.196,-0.004,0.013,-0.019
22285,2.207,-0.192,-9.201,-0.004,0.013,-0.019
22388,2.212,-0.196,-9.201,-0.004,0.013,-0.018
22491,2.207,-0.194,-9.206,-0.004,0.013,-0.019
22594,2.21,-0.194,-9.201,-0.004,0.013,-0.019
22697,2.198,-0.204,-9.199,-0.004,0.013,-0.019
22800,2.207,-0.189,-9.179,-0.004,0.013,-0.019
22903,2.195,-0.199,-9.191,-0.004,0.013,-0.019
23006,2.198,-0.196,-9.201,-0.004,0.013,-0.019
23109,2.2,-0.182,-9.199,-0.004,0.013,-0.019
23212,2.207,-0.208,-9.201,-0.004,0.013,-0.019
23315,2.193,-0.187,-9.199,-0.004,0.013,-0.019
23418,2.203,-0.187,-9.196,-0.004,0.013,-0.019
23521,2.195,-0.199,-9.201,-0.004,0.013,-0.02
23624,2.205,-0.204,-9.201,-0.004,0.013,-0.019
23727,2.217,-0.199,-9.201,-0.003,0.013,-0.019
23830,2.205,-0.196,-9.189,-0.004,0.013,-0.019
23933,2.212,-0.189,-9.206,-0.003,0.013,-0.019
24036,2.2,-0.18,-9.196,-0.004,0.013,-0.019
24139,2.2,-0.196,-9.199,-0.004,0.013,-0.019
24242,2.205,-0.196,-9.196,-0.003,0.013,-0.02
24345,2.215,-0.201,-9.182,-0.004,0.013,-0.019
24448,2.207,-0.196,-9.199,-0.004,0.013,-0.019
24551,2.207,-0.194,-9.21,-0.004,0.013,-0.019
24654,2.212,-0.201,-9.191,-0.004,0.013,-0.02
24757,2.193,-0.192,-9.194,-0.004,0.013,-0.019
24860,2.2,-0.201,-9.194,-0.004,0.013,-0.02
24963,2.207,-0.196,-9.203,-0.004,0.013,-0.019
25066,2.203,-0.201,-9.199,-0.004,0.013,-0.019
25169,2.205,-0.196,-9.199,-0.003,0.014,-0.019
25272,2.21,-0.204,-9.191,-0.004,0.013,-0.019
25375,2.212,-0.194,-9.175,-0.003,0.013,-0.019
25478,2.212,-0.196,-9.199,-0.004,0.013,-0.019
25581,2.205,-0.187,-9.194,-0.004,0.013,-0.02
25684,2.21,-0.196,-9.201,-0.004,0.013,-0.02
25787,2.21,-0.192,-9.203,-0.004,0.013,-0.019
25890,2.2,-0.194,-9.206,-0.004,0.013,-0.019
25993,2.21,-0.192,-9.206,-0.004,0.013,-0.019
26096,2.21,-0.189,-9.191,-0.004,0.013,-0.019
26199,2.205,-0.189,-9.199,-0.004,0.013,-0.019
26302,2.21,-0.192,-9.208,-0.004,0.013,-0.019
26405,2.2,-0.189,-9.203,-0.004,0.013,-0.019
26508,2.21,-0.201,-9.199,-0.004,0.014,-0.019
26611,2.21,-0.194,-9.194,-0.004,0.013,-0.019
26714,2.2,-0.192,-9.206,-0.005,0.013,-0.019
26817,2.21,-0.196,-9.206,-0.004,0.013,-0.019
26920,2.207,-0.196,-9.194,-0.003,0.013,-0.019
27023,2.219,-0.201,-9.191,-0.004,0.013,-0.019
27126,2.212,-0.196,-9.196,-0.004,0.013,-0.019
27229,2.207,-0.184,-9.199,-0.004,0.013,-0.019
27332,2.205,-0.199,-9.196,-0.004,0.013,-0.019
27435,2.203,-0.196,-9.196,-0.004,0.013,-0.019
27538,2.21,-0.194,-9.203,-0.004,0.013,-0.019
27641,2.212,-0.196,-9.199,-0.003,0.013,-0.019
27744,2.207,-0.199,-9.213,-0.003,0.013,-0.019
27847,2.21,-0.204,-9.206,-0.003,0.013,-0.019
27950,2.217,-0.196,-9.187,-0.004,0.013,-0.019
28053,2.212,-0.201,-9.21,-0.003,0.013,-0.019
28156,2.207,-0.184,-9.21,-0.004,0.013,-0.019
28259,2.21,-0.184,-9.196,-0.004,0.013,-0.019
28362,2.207,-0.189,-9.167,-0.004,0.013,-0.019
28465,2.215,-0.196,-9.187,-0.004,0.013,-0.019
28568,2.212,-0.199,-9.189,-0.004,0.013,-0.019
28671,2.205,-0.192,-9.191,-0.004,0.013,-0.019
28774,2.222,-0.196,-9.208,-0.004,0.013,-0.02
28877,2.215,-0.204,-9.196,-0.004,0.013,-0.019
28980,2.219,-0.201,-9.213,-0.004,0.013,-0.019
29083,2.21,-0.196,-9.199,-0.003,0.013,-0.019
29186,2.205,-0.189,-9.199,-0.004,0.013,-0.019
29289,2.222,-0.189,-9.208,-0.004,0.013,-0.019
29392,2.21,-0.204,-9.208,-0.004,0.013,-0.019
29495,2.21,-0.184,-9.206,-0.004,0.013,-0.019
29598,2.195,-0.196,-9.208,-0.004,0.013,-0.019
29701,2.205,-0.196,-9.201,-0.004,0.013,-0.019
29804,2.2,-0.206,-9.199,-0.004,0.013,-0.019
29907,2.205,-0.196,-9.206,-0.003,0.012,-0.019
30010,2.21,-0.194,-9.194,-0.003,0.013,-0.019
30113,2.212,-0.194,-9.187,-0.004,0.013,-0.019
30216,2.21,-0.192,-9.208,-0.005,0.013,-0.019
30319,2.205,-0.194,-9.206,-0.003,0.013,-0.019
30422,2.207,-0.199,-9.189,-0.004,0.013,-0.019
30525,2.205,-0.187,-9.206,-0.004,0.013,-0.019
30628,2.205,-0.192,-9.189,-0.004,0.013,-0.02
30731,2.21,-0.196,-9.187,-0.004,0.013,-0.019
30834,2.212,-0.196,-9.194,-0.004,0.013,-0.019
30937,2.203,-0.189,-9.189,-0.005,0.013,-0.019
31040,2.207,-0.201,-9.191,-0.003,0.013,-0.02
31143,2.212,-0.196,-9.199,-0.004,0.013,-0.019
31246,2.207,-0.199,-9.196,-0.004,0.013,-0.019
31349,2.205,-0.204,-9.179,-0.004,0.013,-0.019
31452,2.207,-0.194,-9.196,-0.004,0.014,-0.019
31555,2.21,-0.192,-9.196,-0.003,0.013,-0.019
31658,2.21,-0.204,-9.22,-0.004,0.013,-0.02
31761,2.205,-0.194,-9.206,-0.003,0.013,-0.02
31864,2.203,-0.199,-9.196,-0.004,0.013,-0.019
31967,2.207,-0.192,-9.206,-0.004,0.013,-0.019
32070,2.203,-0.199,-9.206,-0.004,0.013,-0.019
32173,2.212,-0.199,-9.206,-0.004,0.013,-0.019
32276,2.2,-0.192,-9.213,-0.004,0.013,-0.019
32379,2.203,-0.189,-9.201,-0.004,0.013,-0.019
32482,2.203,-0.192,-9.196,-0.004,0.013,-0.019
32585,2.207,-0.199,-9.199,-0.004,0.013,-0.019
32688,2.21,-0.189,-9.215,-0.004,0.013,-0.019
32791,2.212,-0.199,-9.196,-0.004,0.013,-0.019
32894,2.203,-0.196,-9.194,-0.004,0.013,-0.02
32997,2.212,-0.204,-9.206,-0.004,0.013,-0.019
33100,2.219,-0.201,-9.196,-0.004,0.013,-0.019
33203,2.207,-0.206,-9.191,-0.004,0.013,-0.019
33306,2.207,-0.187,-9.201,-0.003,0.013,-0.019
33409,2.198,-0.199,-9.196,-0.003,0.013,-0.02
33512,2.21,-0.196,-9.215,-0.004,0.013,-0.019
33615,2.207,-0.184,-9.194,-0.003,0.013,-0.019
33718,2.21,-0.199,-9.191,-0.004,0.014,-0.019
33821,2.215,-0.199,-9.201,-0.003,0.013,-0.019
33924,2.215,-0.199,-9.189,-0.004,0.013,-0.019
34027,2.207,-0.194,-9.201,-0.004,0.013,-0.019
34130,2.193,-0.194,-9.189,-0.004,0.013,-0.019
34233,2.21,-0.192,-9.191,-0.004,0.013,-0.019
34336,2.21,-0.196,-9.208,-0.004,0.013,-0.019
34439,2.212,-0.192,-9.187,-0.003,0.013,-0.019
34542,2.207,-0.199,-9.191,-0.004,0.013,-0.018
34645,2.21,-0.199,-9.196,-0.004,0.013,-0.019
34748,2.212,-0.196,-9.196,-0.004,0.013,-0.019
34851,2.207,-0.201,-9.187,-0.004,0.013,-0.019
34954,2.212,-0.204,-9.208,-0.004,0.013,-0.019
35057,2.207,-0.187,-9.196,-0.004,0.012,-0.019
35160,2.207,-0.199,-9.189,-0.004,0.013,-0.019
35263,2.212,-0.201,-9.194,-0.003,0.013,-0.019
35366,2.2,-0.196,-9.199,-0.003,0.013,-0.019
35469,2.212,-0.201,-9.184,-0.004,0.013,-0.019
35572,2.205,-0.201,-9.191,-0.003,0.013,-0.019
35675,2.212,-0.206,-9.201,-0.004,0.014,-0.019
35778,2.207,-0.204,-9.206,-0.003,0.013,-0.019
35881,2.207,-0.192,-9.191,-0.004,0.013,-0.019
35984,2.21,-0.196,-9.206,-0.004,0.013,-0.019
36087,2.198,-0.189,-9.196,-0.004,0.013,-0.019
36190,2.21,-0.194,-9.196,-0.004,0.013,-0.019
36293,2.205,-0.187,-9.199,-0.004,0.013,-0.019
36396,2.21,-0.199,-9.189,-0.004,0.013,-0.019
36499,2.21,-0.189,-9.196,-0.004,0.013,-0.019
36602,2.212,-0.192,-9.189,-0.003,0.013,-0.019
36705,2.212,-0.196,-9.196,-0.004,0.013,-0.019
36808,2.219,-0.192,-9.199,-0.004,0.013,-0.019
36911,2.215,-0.194,-9.203,-0.004,0.013,-0.019
37014,2.21,-0.192,-9.213,-0.004,0.013,-0.019
37117,2.207,-0.192,-9.189,-0.004,0.013,-0.019
37220,2.219,-0.199,-9.196,-0.004,0.013,-0.019
37323,2.205,-0.194,-9.191,-0.004,0.013,-0.019
37426,2.21,-0.196,-9.191,-0.003,0.013,-0.019
37529,2.207,-0.204,-9.206,-0.004,0.013,-0.019
37632,2.21,-0.194,-9.203,-0.003,0.013,-0.019
37735,2.203,-0.196,-9.201,-0.004,0.013,-0.019
37838,2.205,-0.199,-9.189,-0.003,0.013,-0.019
37941,2.198,-0.201,-9.194,-0.003,0.013,-0.019
38044,2.203,-0.206,-9.199,-0.004,0.013,-0.019
38147,2.207,-0.206,-9.215,-0.004,0.013,-0.019
38250,2.21,-0.189,-9.194,-0.004,0.013,-0.019
38353,2.21,-0.199,-9.194,-0.004,0.014,-0.019
38456,2.212,-0.199,-9.21,-0.005,0.013,-0.019
38559,2.203,-0.199,-9.201,-0.004,0.013,-0.019
38662,2.203,-0.196,-9.196,-0.004,0.012,-0.019
38765,2.205,-0.192,-9.196,-0.004,0.013,-0.019
38868,2.212,-0.204,-9.21,-0.003,0.013,-0.019
38971,2.203,-0.189,-9.201,-0.004,0.013,-0.019
39074,2.203,-0.199,-9.189,-0.004,0.012,-0.019
39177,2.205,-0.196,-9.191,-0.004,0.013,-0.019
39280,2.205,-0.196,-9.206,-0.004,0.013,-0.019
39383,2.21,-0.201,-9.194,-0.004,0.013,-0.019
39486,2.2,-0.199,-9.189,-0.004,0.013,-0.019
39589,2.203,-0.199,-9.199,-0.004,0.013,-0.019
39692,2.207,-0.196,-9.179,-0.004,0.013,-0.018
39795,2.207,-0.194,-9.196,-0.003,0.013,-0.019
39898,2.212,-0.192,-9.203,-0.004,0.013,-0.019
40001,2.212,-0.204,-9.184,-0.003,0.013,-0.019
40104,2.215,-0.184,-9.191,-0.004,0.013,-0.019
40207,2.215,-0.204,-9.196,-0.003,0.013,-0.019
40310,2.224,-0.196,-9.203,-0.003,0.012,-0.019
40413,2.215,-0.201,-9.189,-0.003,0.013,-0.019
40516,2.207,-0.189,-9.187,-0.004,0.013,-0.02
40619,2.203,-0.201,-9.194,-0.004,0.013,-0.019
40722,2.203,-0.196,-9.189,-0.004,0.013,-0.019
40825,2.195,-0.192,-9.184,-0.004,0.012,-0.019
40928,2.217,-0.206,-9.182,-0.004,0.013,-0.019
41031,2.207,-0.199,-9.196,-0.004,0.013,-0.019
41134,2.203,-0.204,-9.184,-0.004,0.012,-0.019
41237,2.21,-0.201,-9.196,-0.004,0.013,-0.019
41340,2.212,-0.194,-9.189,-0.004,0.013,-0.019
41443,2.212,-0.208,-9.189,-0.004,0.013,-0.019
41546,2.207,-0.201,-9.191,-0.003,0.013,-0.019
41649,2.207,-0.192,-9.179,-0.004,0.013,-0.019
41752,2.2,-0.199,-9.191,-0.004,0.013,-0.019
41855,2.207,-0.196,-9.199,-0.004,0.013,-0.019
41958,2.207,-0.196,-9.201,-0.004,0.013,-0.019
42061,2.212,-0.196,-9.189,-0.004,0.013,-0.019
42164,2.212,-0.194,-9.206,-0.004,0.013,-0.02
42267,2.215,-0.204,-9.201,-0.004,0.013,-0.019
42370,2.207,-0.199,-9.194,-0.003,0.013,-0.019
42473,2.203,-0.208,-9.187,-0.004,0.013,-0.019
42576,2.207,-0.201,-9.191,-0.003,0.013,-0.019
42679,2.21,-0.199,-9.191,-0.004,0.013,-0.019
42782,2.207,-0.206,-9.194,-0.003,0.013,-0.019
42885,2.203,-0.206,-9.199,-0.003,0.013,-0.019
42988,2.203,-0.196,-9.184,-0.003,0.013,-0.019
43091,2.207,-0.201,-9.203,-0.004,0.013,-0.019
43194,2.207,-0.206,-9.201,-0.004,0.013,-0.019
43297,2.222,-0.189,-9.196,-0.003,0.013,-0.019
43400,2.215,-0.196,-9.206,-0.003,0.013,-0.019
43503,2.217,-0.199,-9.201,-0.004,0.014,-0.019
43606,2.219,-0.192,-9.208,-0.004,0.013,-0.019
43709,2.21,-0.196,-9.182,-0.004,0.013,-0.019
43812,2.203,-0.201,-9.196,-0.004,0.013,-0.019
43915,2.207,-0.189,-9.206,-0.004,0.013,-0.019
44018,2.212,-0.196,-9.196,-0.004,0.013,-0.019
44121,2.217,-0.201,-9.184,-0.004,0.013,-0.019
44224,2.203,-0.189,-9.182,-0.004,0.013,-0.019
44327,2.217,-0.199,-9.196,-0.004,0.013,-0.019
44430,2.222,-0.206,-9.199,-0.004,0.013,-0.019
44533,2.205,-0.194,-9.187,-0.004,0.013,-0.019
44636,2.205,-0.192,-9.201,-0.003,0.013,-0.019
44739,2.203,-0.189,-9.191,-0.004,0.013,-0.019
44842,2.207,-0.201,-9.191,-0.004,0.013,-0.019
44945,2.215,-0.194,-9.208,-0.004,0.013,-0.019
45048,2.217,-0.201,-9.201,-0.004,0.013,-0.019
45151,2.215,-0.201,-9.201,-0.004,0.013,-0.019
45254,2.219,-0.201,-9.191,-0.004,0.013,-0.019
45357,2.215,-0.196,-9.201,-0.004,0.013,-0.019
45460,2.212,-0.204,-9.187,-0.004,0.013,-0.019
45563,2.203,-0.192,-9.189,-0.004,0.013,-0.019
45666,2.203,-0.189,-9.199,-0.004,0.013,-0.019
45769,2.212,-0.204,-9.203,-0.004,0.013,-0.019
45872,2.2,-0.192,-9.206,-0.004,0.013,-0.019
45975,2.21,-0.192,-9.215,-0.004,0.013,-0.019
46078,2.203,-0.199,-9.199,-0.004,0.013,-0.019
46181,2.205,-0.194,-9.203,-0.004,0.013,-0.019
46284,2.212,-0.201,-9.196,-0.004,0.013,-0.019
46387,2.205,-0.199,-9.187,-0.003,0.013,-0.019
46490,2.207,-0.196,-9.194,-0.004,0.013,-0.018
46593,2.203,-0.196,-9.194,-0.004,0.013,-0.02
46696,2.21,-0.199,-9.203,-0.004,0.013,-0.019
46799,2.21,-0.206,-9.203,-0.004,0.013,-0.019
46902,2.205,-0.201,-9.206,-0.004,0.013,-0.019
47005,2.198,-0.184,-9.189,-0.004,0.013,-0.019
47108,2.205,-0.204,-9.189,-0.004,0.013,-0.019
47211,2.207,-0.196,-9.196,-0.004,0.013,-0.019
47314,2.203,-0.201,-9.177,-0.003,0.013,-0.019
47417,2.21,-0.204,-9.189,-0.004,0.013,-0.019
47520,2.205,-0.201,-9.196,-0.004,0.013,-0.019
47623,2.21,-0.204,-9.201,-0.004,0.014,-0.019
47726,2.21,-0.204,-9.196,-0.003,0.013,-0.019
47829,2.207,-0.192,-9.203,-0.004,0.013,-0.019
47932,2.212,-0.199,-9.201,-0.004,0.013,-0.019
48035,2.205,-0.201,-9.194,-0.004,0.013,-0.019
48138,2.207,-0.194,-9.177,-0.004,0.013,-0.019
48241,2.212,-0.201,-9.191,-0.004,0.013,-0.019
48344,2.212,-0.196,-9.184,-0.004,0.013,-0.019
48447,2.2,-0.194,-9.182,-0.004,0.013,-0.019
48550,2.207,-0.201,-9.189,-0.003,0.013,-0.019
48653,2.212,-0.199,-9.194,-0.003,0.013,-0.019
48756,2.212,-0.196,-9.201,-0.004,0.013,-0.019
48859,2.212,-0.194,-9.199,-0.004,0.013,-0.019
48962,2.212,-0.194,-9.206,-0.004,0.013,-0.019
49065,2.217,-0.192,-9.201,-0.003,0.013,-0.019
49168,2.207,-0.192,-9.184,-0.004,0.013,-0.019
49271,2.207,-0.189,-9.191,-0.004,0.013,-0.019
49374,2.21,-0.199,-9.179,-0.004,0.013,-0.019
49477,2.2,-0.192,-9.199,-0.004,0.013,-0.019
49580,2.2,-0.199,-9.196,-0.004,0.013,-0.019
49683,2.2,-0.196,-9.203,-0.004,0.013,-0.019
49786,2.205,-0.196,-9.199,-0.003,0.013,-0.019
49889,2.217,-0.196,-9.189,-0.004,0.013,-0.019
49992,2.212,-0.204,-9.196,-0.004,0.013,-0.019
50095,2.21,-0.194,-9.194,-0.004,0.013,-0.019
50198,2.205,-0.192,-9.177,-0.004,0.013,-0.019
50301,2.193,-0.206,-9.215,-0.004,0.013,-0.019
50404,2.212,-0.192,-9.201,-0.004,0.013,-0.019
50507,2.207,-0.194,-9.184,-0.004,0.013,-0.019
50610,2.205,-0.196,-9.189,-0.003,0.013,-0.019
50713,2.207,-0.196,-9.201,-0.004,0.013,-0.019
50816,2.21,-0.199,-9.189,-0.004,0.013,-0.019
50919,2.2,-0.192,-9.206,-0.004,0.013,-0.019
51022,2.212,-0.199,-9.208,-0.004,0.013,-0.019
51125,2.205,-0.192,-9.175,-0.005,0.013,-0.019
51228,2.207,-0.189,-9.196,-0.004,0.013,-0.019
51331,2.198,-0.192,-9.189,-0.004,0.013,-0.019
51434,2.203,-0.196,-9.196,-0.004,0.013,-0.019
51537,2.215,-0.201,-9.184,-0.003,0.013,-0.019
51640,2.215,-0.201,-9.194,-0.003,0.013,-0.019
51743,2.21,-0.194,-9.196,-0.004,0.014,-0.019
51846,2.224,-0.189,-9.206,-0.004,0.013,-0.018
51949,2.203,-0.201,-9.199,-0.004,0.013,-0.019
52052,2.205,-0.201,-9.196,-0.004,0.013,-0.019
52155,2.207,-0.201,-9.191,-0.004,0.013,-0.018
52258,2.203,-0.194,-9.189,-0.004,0.013,-0.019
52361,2.212,-0.194,-9.201,-0.003,0.013,-0.019
52464,2.215,-0.199,-9.203,-0.003,0.013,-0.019
52567,2.21,-0.189,-9.194,-0.004,0.013,-0.019
52670,2.205,-0.192,-9.206,-0.004,0.013,-0.019
52773,2.219,-0.199,-9.189,-0.004,0.013,-0.019
52876,2.193,-0.199,-9.191,-0.004,0.013,-0.02
52979,2.2,-0.194,-9.201,-0.004,0.013,-0.019
53082,2.21,-0.196,-9.199,-0.003,0.014,-0.019
53185,2.217,-0.199,-9.208,-0.004,0.013,-0.019
53288,2.2,-0.199,-9.203,-0.003,0.013,-0.019
53391,2.205,-0.196,-9.194,-0.004,0.013,-0.019
53494,2.207,-0.204,-9.184,-0.004,0.013,-0.019
53597,2.205,-0.199,-9.191,-0.003,0.013,-0.019
53700,2.203,-0.208,-9.196,-0.004,0.013,-0.019
53803,2.203,-0.206,-9.194,-0.003,0.013,-0.019
53906,2.2,-0.194,-9.213,-0.004,0.013,-0.019
54009,2.207,-0.192,-9.199,-0.004,0.013,-0.019
54112,2.205,-0.201,-9.208,-0.004,0.013,-0.018
54215,2.205,-0.199,-9.189,-0.004,0.013,-0.019
54318,2.212,-0.194,-9.184,-0.004,0.013,-0.019
54421,2.21,-0.194,-9.196,-0.004,0.013,-0.019
54524,2.198,-0.199,-9.194,-0.004,0.013,-0.019
54627,2.21,-0.206,-9.177,-0.004,0.013,-0.019
54730,2.2,-0.201,-9.187,-0.004,0.012,-0.019
54833,2.212,-0.192,-9.203,-0.003,0.013,-0.019
54936,2.212,-0.199,-9.179,-0.004,0.013,-0.02
55039,2.205,-0.204,-9.182,-0.004,0.013,-0.019
55142,2.205,-0.201,-9.206,-0.003,0.013,-0.019
55245,2.217,-0.199,-9.179,-0.004,0.013,-0.019
55348,2.207,-0.199,-9.203,-0.004,0.013,-0.02
55451,2.198,-0.201,-9.201,-0.004,0.013,-0.019
55554,2.203,-0.192,-9.196,-0.004,0.013,-0.019
55657,2.203,-0.196,-9.206,-0.004,0.013,-0.019
55760,2.207,-0.201,-9.194,-0.004,0.013,-0.019
55863,2.205,-0.196,-9.196,-0.004,0.013,-0.019
55966,2.212,-0.194,-9.194,-0.004,0.012,-0.019
56069,2.212,-0.189,-9.194,-0.004,0.013,-0.019
56172,2.203,-0.199,-9.21,-0.003,0.013,-0.019
56275,2.212,-0.208,-9.196,-0.003,0.013,-0.019
56378,2.198,-0.189,-9.201,-0.004,0.013,-0.019
56481,2.21,-0.199,-9.191,-0.004,0.014,-0.019
56584,2.195,-0.196,-9.196,-0.003,0.013,-0.019
56687,2.207,-0.194,-9.206,-0.003,0.013,-0.019
56790,2.205,-0.189,-9.199,-0.004,0.013,-0.019
56893,2.207,-0.196,-9.194,-0.003,0.013,-0.019
56996,2.203,-0.192,-9.184,-0.004,0.013,-0.019
57099,2.2,-0.196,-9.194,-0.003,0.013,-0.019
57202,2.222,-0.192,-9.179,-0.004,0.013,-0.019
57305,2.207,-0.194,-9.189,-0.004,0.013,-0.019
57408,2.205,-0.187,-9.189,-0.003,0.013,-0.019
57511,2.205,-0.194,-9.184,-0.004,0.013,-0.019
57614,2.212,-0.194,-9.201,-0.003,0.013,-0.019
57717,2.212,-0.196,-9.194,-0.003,0.013,-0.019
57820,2.2,-0.199,-9.182,-0.004,0.013,-0.019
57923,2.207,-0.208,-9.187,-0.004,0.013,-0.019
58026,2.21,-0.196,-9.189,-0.004,0.013,-0.019
58129,2.212,-0.204,-9.187,-0.004,0.013,-0.019
58232,2.215,-0.199,-9.191,-0.004,0.013,-0.019
58335,2.207,-0.194,-9.182,-0.004,0.013,-0.02
58438,2.207,-0.208,-9.182,-0.003,0.013,-0.019
58541,2.205,-0.204,-9.199,-0.004,0.013,-0.019
58644,2.215,-0.194,-9.196,-0.004,0.013,-0.019
58747,2.215,-0.192,-9.203,-0.004,0.013,-0.019
58850,2.207,-0.204,-9.21,-0.003,0.013,-0.018
58953,2.215,-0.201,-9.203,-0.004,0.013,-0.019
59056,2.203,-0.196,-9.201,-0.003,0.013,-0.019
59159,2.207,-0.192,-9.215,-0.003,0.013,-0.019
59262,2.207,-0.196,-9.203,-0.003,0.013,-0.02
59365,2.21,-0.196,-9.201,-0.004,0.013,-0.02
59468,2.217,-0.206,-9.187,-0.003,0.013,-0.019
59571,2.217,-0.196,-9.194,-0.004,0.013,-0.019
59674,2.212,-0.196,-9.191,-0.005,0.013,-0.019
59777,2.207,-0.201,-9.191,-0.004,0.013,-0.019
59880,2.198,-0.196,-9.177,-0.004,0.013,-0.019
59983,2.21,-0.199,-9.182,-0.004,0.013,-0.019
60086,2.21,-0.192,-9.203,-0.004,0.013,-0.019
60189,2.207,-0.189,-9.187,-0.004,0.013,-0.019
60292,2.2,-0.196,-9.189,-0.004,0.013,-0.019
60395,2.205,-0.199,-9.191,-0.004,0.013,-0.019
60498,2.21,-0.196,-9.206,-0.004,0.013,-0.019
60601,2.212,-0.201,-9.182,-0.004,0.013,-0.018
60704,2.21,-0.199,-9.194,-0.004,0.013,-0.019
60807,2.207,-0.194,-9.194,-0.004,0.013,-0.019
60910,2.203,-0.199,-9.184,-0.004,0.013,-0.019
61013,2.219,-0.199,-9.196,-0.003,0.013,-0.019
61116,2.205,-0.199,-9.187,-0.004,0.013,-0.019
61219,2.207,-0.194,-9.194,-0.004,0.013,-0.018
61322,2.215,-0.196,-9.179,-0.004,0.013,-0.019
61425,2.2,-0.192,-9.194,-0.003,0.013,-0.019
61528,2.207,-0.201,-9.213,-0.003,0.013,-0.019
61631,2.21,-0.196,-9.189,-0.004,0.013,-0.019
61734,2.207,-0.211,-9.187,-0.004,0.013,-0.019
61837,2.215,-0.194,-9.191,-0.004,0.013,-0.019
61940,2.21,-0.199,-9.203,-0.003,0.013,-0.019
62043,2.21,-0.199,-9.199,-0.004,0.013,-0.019
62146,2.205,-0.201,-9.199,-0.004,0.012,-0.019
62249,2.203,-0.196,-9.194,-0.003,0.013,-0.019
62352,2.21,-0.194,-9.191,-0.004,0.013,-0.019
62455,2.215,-0.199,-9.208,-0.004,0.012,-0.019
62558,2.21,-0.201,-9.187,-0.003,0.013,-0.019
62661,2.205,-0.196,-9.191,-0.004,0.013,-0.02
62764,2.217,-0.192,-9.194,-0.003,0.013,-0.019
62867,2.205,-0.196,-9.179,-0.004,0.013,-0.019
62970,2.212,-0.189,-9.184,-0.004,0.013,-0.019
63073,2.207,-0.194,-9.194,-0.003,0.013,-0.019
63176,2.198,-0.201,-9.184,-0.003,0.013,-0.019
63279,2.21,-0.192,-9.191,-0.004,0.013,-0.019
63382,2.207,-0.201,-9.208,-0.004,0.013,-0.019
63485,2.207,-0.192,-9.187,-0.004,0.013,-0.019
63588,2.219,-0.194,-9.182,-0.004,0.013,-0.019
63691,2.215,-0.196,-9.189,-0.004,0.013,-0.019
63794,2.21,-0.194,-9.189,-0.004,0.013,-0.02
63897,2.203,-0.201,-9.191,-0.004,0.013,-0.019
64000,2.2,-0.201,-9.203,-0.004,0.013,-0.019
64103,2.21,-0.196,-9.179,-0.004,0.013,-0.02
64206,2.215,-0.184,-9.199,-0.003,0.013,-0.019
64309,2.217,-0.199,-9.191,-0.003,0.013,-0.019
64412,2.207,-0.199,-9.199,-0.003,0.013,-0.019
64515,2.203,-0.199,-9.199,-0.003,0.013,-0.019
64618,2.21,-0.199,-9.191,-0.004,0.013,-0.019
64721,2.205,-0.194,-9.213,-0.004,0.013,-0.019
64824,2.205,-0.194,-9.184,-0.003,0.013,-0.019
64927,2.21,-0.192,-9.189,-0.004,0.013,-0.02
65030,2.212,-0.196,-9.172,-0.003,0.013,-0.019
65133,2.207,-0.192,-9.187,-0.004,0.013,-0.019
65236,2.212,-0.206,-9.191,-0.004,0.013,-0.019
65339,2.188,-0.192,-9.182,-0.004,0.013,-0.019
65442,2.207,-0.194,-9.194,-0.004,0.013,-0.019
65545,2.207,-0.194,-9.194,-0.003,0.013,-0.019
65648,2.207,-0.189,-9.179,-0.004,0.013,-0.019
65751,2.2,-0.187,-9.175,-0.004,0.013,-0.019
65854,2.217,-0.189,-9.175,-0.004,0.013,-0.019
65957,2.207,-0.199,-9.199,-0.004,0.013,-0.019
66060,2.207,-0.206,-9.191,-0.003,0.013,-0.019
66163,2.203,-0.196,-9.199,-0.004,0.013,-0.019
66266,2.205,-0.201,-9.196,-0.003,0.013,-0.019
66369,2.205,-0.194,-9.194,-0.004,0.013,-0.019
66472,2.215,-0.199,-9.191,-0.004,0.013,-0.019
66575,2.212,-0.196,-9.201,-0.004,0.013,-0.019
66678,2.195,-0.187,-9.206,-0.004,0.013,-0.019
66781,2.203,-0.196,-9.184,-0.004,0.013,-0.019
66884,2.212,-0.204,-9.189,-0.003,0.013,-0.019
66987,2.207,-0.199,-9.184,-0.003,0.013,-0.019
67090,2.207,-0.187,-9.187,-0.004,0.013,-0.019
67193,2.205,-0.196,-9.196,-0.004,0.013,-0.019
67296,2.203,-0.192,-9.208,-0.003,0.013,-0.019
67399,2.212,-0.189,-9.199,-0.004,0.013,-0.019
67502,2.195,-0.196,-9.199,-0.004,0.014,-0.019
67605,2.205,-0.199,-9.196,-0.003,0.013,-0.019
67708,2.205,-0.199,-9.184,-0.004,0.013,-0.019
67811,2.21,-0.194,-9.196,-0.004,0.013,-0.019
67914,2.207,-0.189,-9.199,-0.004,0.013,-0.019
68017,2.2,-0.199,-9.187,-0.004,0.014,-0.019
68120,2.198,-0.201,-9.189,-0.004,0.013,-0.019
68223,2.203,-0.194,-9.199,-0.003,0.013,-0.019
68326,2.217,-0.208,-9.189,-0.004,0.013,-0.019
68429,2.207,-0.196,-9.184,-0.003,0.013,-0.019
68532,2.212,-0.194,-9.194,-0.003,0.013,-0.019
68635,2.212,-0.192,-9.194,-0.004,0.013,-0.019
68738,2.2,-0.201,-9.191,-0.004,0.013,-0.019
68841,2.212,-0.201,-9.199,-0.003,0.013,-0.019
68944,2.21,-0.199,-9.187,-0.003,0.013,-0.019
69047,2.205,-0.199,-9.196,-0.003,0.013,-0.019
69150,2.2,-0.199,-9.196,-0.004,0.013,-0.019
69253,2.205,-0.196,-9.191,-0.004,0.013,-0.019
69356,2.222,-0.201,-9.199,-0.004,0.013,-0.019
69459,2.215,-0.199,-9.182,-0.004,0.013,-0.019
69562,2.21,-0.194,-9.194,-0.003,0.013,-0.019
69665,2.205,-0.196,-9.196,-0.004,0.013,-0.019
69768,2.203,-0.194,-9.196,-0.004,0.013,-0.019
69871,2.203,-0.199,-9.194,-0.004,0.013,-0.019
69974,2.203,-0.196,-9.189,-0.003,0.013,-0.019
70077,2.215,-0.189,-9.194,-0.004,0.014,-0.019
70180,2.205,-0.208,-9.187,-0.003,0.013,-0.019
70283,2.212,-0.187,-9.189,-0.003,0.013,-0.018
70386,2.2,-0.196,-9.189,-0.004,0.013,-0.019
70489,2.205,-0.196,-9.201,-0.004,0.013,-0.019
70592,2.203,-0.199,-9.189,-0.003,0.013,-0.019
70695,2.207,-0.201,-9.206,-0.004,0.013,-0.019
70798,2.203,-0.199,-9.191,-0.003,0.013,-0.019
70901,2.217,-0.199,-9.191,-0.004,0.013,-0.019
71004,2.212,-0.196,-9.199,-0.004,0.013,-0.019
71107,2.215,-0.196,-9.196,-0.003,0.013,-0.019
71210,2.203,-0.192,-9.199,-0.003,0.013,-0.019
71313,2.217,-0.196,-9.189,-0.004,0.014,-0.019
71416,2.212,-0.199,-9.184,-0.003,0.013,-0.019
71519,2.217,-0.206,-9.191,-0.003,0.013,-0.019
71622,2.217,-0.201,-9.201,-0.004,0.013,-0.019
71725,2.203,-0.192,-9.201,-0.004,0.013,-0.019
71828,2.203,-0.196,-9.189,-0.004,0.013,-0.02
71931,2.207,-0.201,-9.177,-0.004,0.013,-0.019
72034,2.21,-0.201,-9.182,-0.004,0.013,-0.019
72137,2.215,-0.196,-9.177,-0.004,0.013,-0.019
72240,2.205,-0.196,-9.184,-0.003,0.014,-0.019
72343,2.205,-0.196,-9.196,-0.004,0.013,-0.019
72446,2.21,-0.201,-9.201,-0.003,0.013,-0.019
72549,2.215,-0.189,-9.184,-0.004,0.013,-0.019
72652,2.207,-0.189,-9.199,-0.004,0.013,-0.019
72755,2.21,-0.189,-9.196,-0.004,0.013,-0.019
72858,2.205,-0.192,-9.179,-0.004,0.012,-0.019
72961,2.21,-0.199,-9.191,-0.004,0.013,-0.019
73064,2.207,-0.194,-9.194,-0.004,0.013,-0.019
73167,2.215,-0.194,-9.184,-0.004,0.013,-0.02
73270,2.205,-0.196,-9.184,-0.004,0.013,-0.019
73373,2.21,-0.199,-9.196,-0.004,0.014,-0.019
73476,2.207,-0.196,-9.194,-0.004,0.013,-0.019
73579,2.207,-0.187,-9.201,-0.004,0.013,-0.019
73682,2.205,-0.196,-9.184,-0.004,0.013,-0.019
73785,2.205,-0.194,-9.182,-0.004,0.013,-0.019
73888,2.212,-0.189,-9.184,-0.003,0.013,-0.019
73991,2.207,-0.189,-9.175,-0.004,0.013,-0.019
74094,2.21,-0.206,-9.194,-0.003,0.013,-0.019
74197,2.205,-0.189,-9.191,-0.003,0.013,-0.019
74300,2.205,-0.194,-9.184,-0.004,0.013,-0.019
74403,2.207,-0.204,-9.177,-0.004,0.013,-0.019
74506,2.207,-0.192,-9.187,-0.003,0.013,-0.019
74609,2.207,-0.196,-9.191,-0.004,0.013,-0.019
74712,2.212,-0.194,-9.194,-0.004,0.013,-0.019
74815,2.203,-0.201,-9.191,-0.004,0.014,-0.019
74918,2.212,-0.192,-9.191,-0.003,0.014,-0.019
75021,2.205,-0.194,-9.196,-0.004,0.013,-0.019
75124,2.207,-0.196,-9.189,-0.003,0.013,-0.019
75227,2.21,-0.192,-9.167,-0.004,0.013,-0.019
75330,2.219,-0.206,-9.182,-0.003,0.013,-0.019
75433,2.205,-0.194,-9.184,-0.003,0.013,-0.019
75536,2.205,-0.192,-9.184,-0.003,0.013,-0.019
75639,2.207,-0.194,-9.179,-0.004,0.013,-0.019
75742,2.203,-0.189,-9.187,-0.003,0.013,-0.019
75845,2.212,-0.189,-9.194,-0.004,0.013,-0.019
75948,2.21,-0.204,-9.184,-0.004,0.013,-0.019
76051,2.212,-0.199,-9.194,-0.003,0.013,-0.019
76154,2.205,-0.196,-9.199,-0.004,0.013,-0.019
76257,2.205,-0.199,-9.182,-0.004,0.013,-0.019
76360,2.207,-0.189,-9.187,-0.004,0.013,-0.019
76463,2.212,-0.196,-9.187,-0.003,0.013,-0.019
76566,2.215,-0.192,-9.189,-0.004,0.013,-0.019
76669,2.21,-0.196,-9.213,-0.004,0.013,-0.019
76772,2.203,-0.196,-9.201,-0.004,0.013,-0.019
76875,2.207,-0.211,-9.189,-0.004,0.013,-0.019
76978,2.205,-0.199,-9.182,-0.004,0.013,-0.019
77081,2.217,-0.196,-9.199,-0.004,0.013,-0.019
77184,2.205,-0.192,-9.189,-0.003,0.013,-0.019
77287,2.203,-0.201,-9.189,-0.003,0.013,-0.019
77390,2.205,-0.194,-9.184,-0.003,0.013,-0.019
77493,2.212,-0.204,-9.187,-0.003,0.013,-0.019
77596,2.207,-0.201,-9.191,-0.003,0.013,-0.019
77699,2.203,-0.192,-9.189,-0.004,0.013,-0.019
77802,2.207,-0.189,-9.199,-0.004,0.013,-0.019
77905,2.2,-0.192,-9.184,-0.004,0.013,-0.019
78008,2.207,-0.201,-9.194,-0.004,0.013,-0.019
78111,2.207,-0.206,-9.199,-0.004,0.013,-0.019
78214,2.203,-0.199,-9.187,-0.004,0.013,-0.019
78317,2.21,-0.196,-9.194,-0.003,0.013,-0.019
78420,2.207,-0.204,-9.196,-0.003,0.013,-0.019
78523,2.212,-0.199,-9.184,-0.003,0.013,-0.019
78626,2.215,-0.194,-9.184,-0.004,0.014,-0.019
78729,2.21,-0.192,-9.184,-0.004,0.013,-0.019
78832,2.207,-0.192,-9.179,-0.004,0.013,-0.019
78935,2.203,-0.206,-9.187,-0.004,0.013,-0.019
79038,2.203,-0.196,-9.184,-0.004,0.013,-0.019
79141,2.212,-0.194,-9.182,-0.003,0.013,-0.019
79244,2.203,-0.199,-9.189,-0.003,0.013,-0.019
79347,2.205,-0.196,-9.179,-0.004,0.013,-0.019
79450,2.212,-0.201,-9.182,-0.003,0.014,-0.019
79553,2.212,-0.196,-9.187,-0.003,0.013,-0.02
79656,2.2,-0.201,-9.191,-0.003,0.013,-0.019
79759,2.2,-0.194,-9.182,-0.004,0.013,-0.019
79862,2.207,-0.204,-9.184,-0.003,0.013,-0.019
79965,2.21,-0.199,-9.191,-0.004,0.013,-0.019
80068,2.212,-0.206,-9.189,-0.004,0.013,-0.019
80171,2.207,-0.199,-9.199,-0.004,0.014,-0.019
80274,2.219,-0.201,-9.199,-0.004,0.013,-0.02
80377,2.212,-0.194,-9.182,-0.003,0.013,-0.019
80480,2.195,-0.192,-9.184,-0.004,0.013,-0.019
80583,2.215,-0.201,-9.184,-0.004,0.013,-0.019
80686,2.215,-0.206,-9.182,-0.004,0.013,-0.019
80789,2.215,-0.199,-9.191,-0.003,0.013,-0.019
80892,2.21,-0.208,-9.179,-0.004,0.014,-0.019
80995,2.215,-0.201,-9.184,-0.003,0.013,-0.02
81098,2.219,-0.199,-9.189,-0.003,0.013,-0.019
81201,2.212,-0.194,-9.189,-0.003,0.013,-0.019
81304,2.21,-0.199,-9.175,-0.003,0.013,-0.019
81407,2.212,-0.201,-9.184,-0.004,0.013,-0.019
81510,2.21,-0.199,-9.199,-0.004,0.013,-0.019
81613,2.21,-0.194,-9.187,-0.003,0.014,-0.019
81716,2.2,-0.196,-9.187,-0.003,0.013,-0.019
81819,2.205,-0.211,-9.191,-0.003,0.013,-0.019
81922,2.207,-0.192,-9.182,-0.003,0.014,-0.019
82025,2.21,-0.192,-9.175,-0.003,0.013,-0.019
82128,2.215,-0.199,-9.182,-0.004,0.013,-0.02
82231,2.21,-0.201,-9.184,-0.004,0.013,-0.019
82334,2.2,-0.196,-9.189,-0.004,0.013,-0.019
82437,2.207,-0.196,-9.182,-0.003,0.013,-0.019
82540,2.212,-0.199,-9.177,-0.004,0.013,-0.019
82643,2.207,-0.189,-9.182,-0.004,0.013,-0.019
82746,2.215,-0.201,-9.182,-0.003,0.013,-0.019
82849,2.21,-0.194,-9.194,-0.004,0.013,-0.019
82952,2.212,-0.192,-9.199,-0.004,0.013,-0.019
83055,2.212,-0.194,-9.191,-0.003,0.013,-0.019
83158,2.203,-0.201,-9.189,-0.004,0.013,-0.019
83261,2.21,-0.201,-9.191,-0.004,0.013,-0.019
83364,2.207,-0.194,-9.182,-0.003,0.013,-0.019
83467,2.215,-0.196,-9.194,-0.004,0.013,-0.019
83570,2.215,-0.196,-9.196,-0.003,0.013,-0.019
83673,2.212,-0.196,-9.172,-0.004,0.014,-0.018
83776,2.205,-0.196,-9.196,-0.004,0.013,-0.019
83879,2.222,-0.196,-9.184,-0.004,0.013,-0.019
83982,2.212,-0.192,-9.187,-0.003,0.013,-0.019
84085,2.212,-0.201,-9.191,-0.003,0.013,-0.019
84188,2.21,-0.201,-9.189,-0.004,0.013,-0.019
84291,2.205,-0.196,-9.175,-0.004,0.013,-0.019
84394,2.207,-0.204,-9.191,-0.004,0.013,-0.019
84497,2.205,-0.189,-9.191,-0.003,0.013,-0.019
84600,2.21,-0.196,-9.196,-0.004,0.013,-0.019
84703,2.205,-0.199,-9.194,-0.004,0.013,-0.019
84806,2.205,-0.192,-9.189,-0.003,0.013,-0.019
84909,2.205,-0.196,-9.184,-0.004,0.013,-0.019
85012,2.21,-0.196,-9.196,-0.004,0.013,-0.019
85115,2.205,-0.189,-9.189,-0.004,0.013,-0.019
85218,2.203,-0.204,-9.194,-0.004,0.013,-0.02
85321,2.207,-0.184,-9.17,-0.004,0.014,-0.019
85424,2.205,-0.196,-9.189,-0.004,0.013,-0.019
85527,2.2,-0.194,-9.187,-0.003,0.013,-0.018
85630,2.198,-0.204,-9.184,-0.003,0.013,-0.019
85733,2.21,-0.199,-9.17,-0.004,0.013,-0.019
85836,2.219,-0.194,-9.201,-0.003,0.013,-0.019
85939,2.217,-0.196,-9.191,-0.003,0.012,-0.019
86042,2.215,-0.194,-9.191,-0.003,0.013,-0.018
86145,2.21,-0.192,-9.187,-0.003,0.013,-0.019
86248,2.203,-0.187,-9.196,-0.004,0.013,-0.019
86351,2.212,-0.199,-9.199,-0.004,0.013,-0.019
86454,2.217,-0.187,-9.194,-0.003,0.013,-0.019
86557,2.21,-0.199,-9.199,-0.003,0.013,-0.019
86660,2.212,-0.206,-9.199,-0.003,0.013,-0.019
86763,2.21,-0.201,-9.189,-0.003,0.013,-0.019
86866,2.207,-0.196,-9.189,-0.003,0.013,-0.019
86969,2.215,-0.199,-9.199,-0.003,0.013,-0.019
87072,2.207,-0.201,-9.194,-0.003,0.013,-0.019
87175,2.207,-0.196,-9.203,-0.004,0.013,-0.019
87278,2.21,-0.192,-9.194,-0.004,0.013,-0.019
87381,2.207,-0.211,-9.179,-0.004,0.013,-0.019
87484,2.207,-0.201,-9.194,-0.004,0.014,-0.019
87587,2.207,-0.187,-9.199,-0.003,0.013,-0.019
87690,2.203,-0.196,-9.191,-0.004,0.013,-0.019
87793,2.2,-0.204,-9.191,-0.004,0.013,-0.019
87896,2.212,-0.201,-9.182,-0.003,0.013,-0.019
87999,2.205,-0.201,-9.189,-0.003,0.012,-0.019
88102,2.2,-0.187,-9.184,-0.003,0.013,-0.019
88205,2.207,-0.199,-9.182,-0.003,0.013,-0.019
88308,2.205,-0.196,-9.182,-0.003,0.013,-0.019
88411,2.219,-0.194,-9.187,-0.003,0.013,-0.019
88514,2.205,-0.199,-9.182,-0.003,0.013,-0.019
88617,2.2,-0.194,-9.194,-0.003,0.013,-0.019
88720,2.207,-0.192,-9.182,-0.004,0.013,-0.019
88823,2.198,-0.201,-9.187,-0.004,0.013,-0.019
88926,2.21,-0.194,-9.179,-0.003,0.013,-0.019
89029,2.21,-0.201,-9.187,-0.004,0.013,-0.019
89132,2.217,-0.199,-9.199,-0.004,0.013,-0.019
89235,2.207,-0.196,-9.194,-0.003,0.013,-0.019
89338,2.215,-0.201,-9.184,-0.003,0.014,-0.019
89441,2.21,-0.194,-9.191,-0.004,0.013,-0.019
89544,2.203,-0.192,-9.196,-0.004,0.013,-0.019
89647,2.207,-0.194,-9.182,-0.003,0.013,-0.019
89750,2.198,-0.192,-9.184,-0.003,0.013,-0.019
89853,2.21,-0.199,-9.189,-0.004,0.013,-0.019
89956,2.207,-0.196,-9.187,-0.003,0.013,-0.019
90059,2.212,-0.204,-9.189,-0.003,0.013,-0.019
90162,2.207,-0.194,-9.184,-0.003,0.013,-0.019
90265,2.21,-0.201,-9.189,-0.003,0.013,-0.019
90368,2.215,-0.192,-9.194,-0.004,0.013,-0.019
90471,2.205,-0.192,-9.177,-0.004,0.013,-0.019
90574,2.212,-0.189,-9.187,-0.004,0.013,-0.019
90677,2.215,-0.199,-9.189,-0.004,0.013,-0.019
90780,2.212,-0.196,-9.194,-0.004,0.013,-0.019
90883,2.215,-0.194,-9.194,-0.003,0.013,-0.019
90986,2.212,-0.194,-9.194,-0.003,0.014,-0.019
91089,2.21,-0.204,-9.187,-0.004,0.013,-0.019
91192,2.21,-0.189,-9.172,-0.003,0.013,-0.019
91295,2.215,-0.206,-9.191,-0.003,0.013,-0.019
91398,2.21,-0.201,-9.196,-0.003,0.013,-0.019
91501,2.21,-0.201,-9.196,-0.003,0.013,-0.019
91604,2.212,-0.194,-9.201,-0.004,0.013,-0.019
91707,2.207,-0.196,-9.196,-0.004,0.013,-0.02
91810,2.203,-0.201,-9.177,-0.004,0.013,-0.019
91913,2.205,-0.199,-9.179,-0.004,0.013,-0.019
92016,2.212,-0.194,-9.206,-0.003,0.013,-0.019
92119,2.21,-0.196,-9.187,-0.003,0.013,-0.019
92222,2.212,-0.204,-9.199,-0.003,0.013,-0.019
92325,2.2,-0.199,-9.191,-0.004,0.013,-0.019
92428,2.212,-0.196,-9.208,-0.004,0.013,-0.019
92531,2.217,-0.206,-9.194,-0.004,0.013,-0.019
92634,2.21,-0.204,-9.191,-0.004,0.013,-0.019
92737,2.219,-0.192,-9.194,-0.003,0.013,-0.019
92840,2.217,-0.201,-9.191,-0.004,0.013,-0.019
92943,2.207,-0.201,-9.194,-0.003,0.013,-0.019
93046,2.21,-0.201,-9.196,-0.003,0.013,-0.019
93149,2.224,-0.194,-9.184,-0.004,0.013,-0.019
93252,2.207,-0.206,-9.184,-0.003,0.013,-0.019
93355,2.207,-0.204,-9.196,-0.003,0.013,-0.019
93458,2.207,-0.196,-9.194,-0.004,0.013,-0.019
93561,2.212,-0.196,-9.17,-0.003,0.013,-0.019
93664,2.205,-0.196,-9.187,-0.004,0.013,-0.019
93767,2.215,-0.189,-9.179,-0.003,0.013,-0.019
93870,2.217,-0.187,-9.194,-0.003,0.013,-0.019
93973,2.215,-0.199,-9.196,-0.004,0.013,-0.019
94076,2.207,-0.194,-9.196,-0.004,0.013,-0.019
94179,2.21,-0.194,-9.191,-0.003,0.013,-0.019
94282,2.207,-0.201,-9.187,-0.003,0.013,-0.019
94385,2.205,-0.184,-9.182,-0.003,0.013,-0.019
94488,2.215,-0.182,-9.196,-0.004,0.013,-0.019
94591,2.203,-0.187,-9.175,-0.003,0.013,-0.019
94694,2.203,-0.204,-9.196,-0.004,0.013,-0.019
94797,2.219,-0.199,-9.179,-0.004,0.013,-0.019
94900,2.207,-0.196,-9.184,-0.004,0.013,-0.019
95003,2.21,-0.204,-9.189,-0.003,0.013,-0.02
95106,2.212,-0.201,-9.199,-0.003,0.013,-0.019
95209,2.203,-0.204,-9.187,-0.004,0.014,-0.019
95312,2.198,-0.199,-9.196,-0.003,0.013,-0.019
95415,2.205,-0.199,-9.179,-0.003,0.013,-0.019
95518,2.207,-0.201,-9.177,-0.004,0.013,-0.019
95621,2.2,-0.194,-9.189,-0.003,0.013,-0.018
95724,2.212,-0.204,-9.179,-0.004,0.013,-0.019
95827,2.203,-0.201,-9.184,-0.004,0.013,-0.019
95930,2.215,-0.192,-9.184,-0.004,0.013,-0.019
96033,2.207,-0.201,-9.175,-0.004,0.013,-0.019
96136,2.207,-0.206,-9.191,-0.003,0.013,-0.019
96239,2.203,-0.187,-9.184,-0.004,0.013,-0.019
96342,2.195,-0.206,-9.189,-0.003,0.013,-0.019
96445,2.205,-0.194,-9.184,-0.003,0.013,-0.019
96548,2.205,-0.189,-9.196,-0.004,0.013,-0.019
96651,2.203,-0.204,-9.199,-0.004,0.013,-0.019
96754,2.217,-0.199,-9.199,-0.003,0.013,-0.019
96857,2.212,-0.196,-9.187,-0.004,0.013,-0.019
96960,2.21,-0.194,-9.191,-0.004,0.013,-0.019
97063,2.21,-0.192,-9.189,-0.004,0.013,-0.019
97166,2.21,-0.187,-9.179,-0.004,0.013,-0.019
97269,2.212,-0.184,-9.182,-0.003,0.013,-0.019
97372,2.215,-0.199,-9.175,-0.004,0.013,-0.019
97475,2.21,-0.196,-9.184,-0.003,0.013,-0.019
97578,2.212,-0.196,-9.189,-0.003,0.013,-0.019
97681,2.203,-0.187,-9.175,-0.004,0.013,-0.019
97784,2.21,-0.194,-9.179,-0.004,0.013,-0.019
97887,2.2,-0.187,-9.196,-0.003,0.013,-0.019
97990,2.198,-0.204,-9.194,-0.003,0.013,-0.019
98093,2.21,-0.204,-9.194,-0.003,0.013,-0.019
98196,2.212,-0.201,-9.189,-0.004,0.013,-0.019
98299,2.207,-0.189,-9.194,-0.004,0.013,-0.019
98402,2.212,-0.206,-9.191,-0.004,0.013,-0.019
98505,2.21,-0.189,-9.182,-0.004,0.013,-0.02
98608,2.21,-0.194,-9.189,-0.003,0.013,-0.019
98711,2.207,-0.201,-9.187,-0.004,0.013,-0.019
98814,2.21,-0.196,-9.184,-0.003,0.013,-0.019
98917,2.207,-0.201,-9.177,-0.003,0.013,-0.019
99020,2.2,-0.196,-9.177,-0.003,0.013,-0.019
99123,2.21,-0.182,-9.175,-0.003,0.013,-0.019
99226,2.2,-0.196,-9.189,-0.003,0.013,-0.019
99329,2.205,-0.187,-9.184,-0.003,0.013,-0.019
99432,2.205,-0.196,-9.179,-0.003,0.013,-0.02
99535,2.21,-0.204,-9.175,-0.003,0.013,-0.019
99638,2.21,-0.196,-9.179,-0.003,0.013,-0.02
99741,2.212,-0.187,-9.187,-0.003,0.013,-0.019
99844,2.21,-0.189,-9.187,-0.004,0.013,-0.019
99947,2.207,-0.192,-9.187,-0.004,0.013,-0.019
100050,2.207,-0.196,-9.189,-0.003,0.013,-0.019
100153,2.21,-0.192,-9.189,-0.004,0.013,-0.019
100256,2.21,-0.199,-9.184,-0.003,0.013,-0.019
100359,2.198,-0.187,-9.196,-0.004,0.013,-0.019
100462,2.2,-0.187,-9.201,-0.004,0.013,-0.019
100565,2.203,-0.199,-9.194,-0.003,0.013,-0.019
100668,2.207,-0.201,-9.182,-0.004,0.013,-0.019
100771,2.21,-0.196,-9.179,-0.003,0.013,-0.019
100874,2.198,-0.196,-9.189,-0.003,0.013,-0.019
100977,2.205,-0.208,-9.184,-0.003,0.013,-0.019
101080,2.207,-0.184,-9.187,-0.004,0.013,-0.019
101183,2.203,-0.199,-9.182,-0.004,0.013,-0.019
101286,2.212,-0.199,-9.179,-0.004,0.013,-0.018
101389,2.203,-0.201,-9.182,-0.003,0.013,-0.019
101492,2.2,-0.192,-9.172,-0.003,0.013,-0.019
101595,2.21,-0.194,-9.196,-0.003,0.013,-0.019
101698,2.203,-0.204,-9.187,-0.004,0.013,-0.019
101801,2.205,-0.199,-9.182,-0.004,0.013,-0.019
101904,2.21,-0.204,-9.189,-0.004,0.013,-0.019
102007,2.215,-0.196,-9.191,-0.004,0.013,-0.019
102110,2.207,-0.199,-9.196,-0.003,0.013,-0.019
102213,2.217,-0.189,-9.182,-0.003,0.013,-0.019
102316,2.205,-0.194,-9.184,-0.003,0.013,-0.019
102419,2.193,-0.192,-9.182,-0.004,0.012,-0.019
102522,2.203,-0.199,-9.189,-0.004,0.013,-0.019
102625,2.219,-0.206,-9.17,-0.004,0.013,-0.019
102728,2.203,-0.201,-9.172,-0.003,0.013,-0.019
102831,2.207,-0.204,-9.184,-0.004,0.013,-0.019
102934,2.212,-0.194,-9.201,-0.004,0.013,-0.019
103037,2.207,-0.194,-9.199,-0.004,0.014,-0.019
103140,2.215,-0.204,-9.184,-0.004,0.013,-0.019
103243,2.205,-0.196,-9.177,-0.004,0.013,-0.019
103346,2.205,-0.201,-9.184,-0.003,0.013,-0.019
103449,2.215,-0.189,-9.179,-0.003,0.013,-0.019
103552,2.21,-0.196,-9.194,-0.003,0.013,-0.019
103655,2.212,-0.194,-9.194,-0.003,0.013,-0.019
103758,2.21,-0.196,-9.194,-0.003,0.013,-0.019
103861,2.212,-0.199,-9.191,-0.004,0.013,-0.019
103964,2.203,-0.192,-9.175,-0.004,0.013,-0.019
104067,2.21,-0.201,-9.187,-0.003,0.013,-0.019
104170,2.203,-0.196,-9.189,-0.003,0.013,-0.019
104273,2.215,-0.204,-9.189,-0.003,0.013,-0.019
104376,2.195,-0.192,-9.191,-0.004,0.013,-0.019
104479,2.207,-0.199,-9.182,-0.004,0.013,-0.019
104582,2.205,-0.184,-9.184,-0.004,0.013,-0.019
104685,2.203,-0.201,-9.199,-0.003,0.013,-0.019
104788,2.205,-0.194,-9.196,-0.004,0.013,-0.019
104891,2.217,-0.196,-9.187,-0.004,0.013,-0.019
104994,2.207,-0.187,-9.194,-0.003,0.013,-0.018
105097,2.203,-0.199,-9.167,-0.003,0.013,-0.019
105200,2.205,-0.201,-9.191,-0.004,0.013,-0.019
105303,2.21,-0.204,-9.187,-0.003,0.013,-0.019
105406,2.207,-0.196,-9.179,-0.003,0.013,-0.019
105509,2.219,-0.194,-9.177,-0.004,0.013,-0.019
105612,2.203,-0.189,-9.179,-0.003,0.013,-0.019
105715,2.193,-0.196,-9.196,-0.004,0.013,-0.019
105818,2.207,-0.192,-9.189,-0.003,0.013,-0.019
105921,2.203,-0.201,-9.177,-0.004,0.013,-0.019
106024,2.205,-0.208,-9.194,-0.003,0.013,-0.019
106127,2.215,-0.206,-9.175,-0.004,0.013,-0.019
106230,2.21,-0.196,-9.167,-0.003,0.013,-0.019
106333,2.207,-0.204,-9.189,-0.004,0.013,-0.019
106436,2.21,-0.201,-9.196,-0.004,0.013,-0.018
106539,2.207,-0.189,-9.182,-0.004,0.013,-0.019
106642,2.217,-0.201,-9.184,-0.004,0.013,-0.019
106745,2.21,-0.201,-9.182,-0.004,0.013,-0.019
106848,2.212,-0.199,-9.184,-0.004,0.013,-0.019
106951,2.207,-0.192,-9.187,-0.003,0.013,-0.019
107054,2.212,-0.201,-9.187,-0.003,0.013,-0.019
107157,2.2,-0.201,-9.199,-0.003,0.013,-0.019
107260,2.203,-0.196,-9.191,-0.003,0.013,-0.019
107363,2.207,-0.194,-9.175,-0.003,0.013,-0.019
107466,2.207,-0.194,-9.179,-0.004,0.013,-0.019
107569,2.219,-0.201,-9.206,-0.003,0.013,-0.019
107672,2.224,-0.199,-9.172,-0.003,0.013,-0.019
107775,2.212,-0.192,-9.187,-0.003,0.014,-0.019
107878,2.2,-0.204,-9.179,-0.004,0.013,-0.019
107981,2.203,-0.189,-9.189,-0.003,0.013,-0.019
108084,2.207,-0.206,-9.182,-0.004,0.013,-0.019
108187,2.205,-0.199,-9.187,-0.004,0.013,-0.019
108290,2.224,-0.206,-9.177,-0.003,0.013,-0.019
108393,2.2,-0.187,-9.199,-0.004,0.013,-0.019
108496,2.205,-0.196,-9.175,-0.003,0.013,-0.019
108599,2.215,-0.201,-9.199,-0.003,0.013,-0.019
108702,2.207,-0.201,-9.203,-0.003,0.013,-0.019
108805,2.207,-0.204,-9.196,-0.003,0.013,-0.019
108908,2.21,-0.192,-9.191,-0.003,0.013,-0.019
109011,2.207,-0.189,-9.182,-0.003,0.013,-0.019
109114,2.217,-0.199,-9.191,-0.003,0.013,-0.019
109217,2.212,-0.194,-9.177,-0.003,0.013,-0.019
109320,2.212,-0.204,-9.179,-0.003,0.013,-0.019
109423,2.21,-0.196,-9.201,-0.003,0.013,-0.019
109526,2.212,-0.192,-9.184,-0.003,0.013,-0.019
109629,2.207,-0.196,-9.175,-0.004,0.013,-0.019
109732,2.21,-0.194,-9.172,-0.004,0.013,-0.019
109835,2.193,-0.196,-9.165,-0.003,0.013,-0.019
109938,2.212,-0.187,-9.189,-0.003,0.013,-0.019
110041,2.207,-0.196,-9.177,-0.004,0.013,-0.019
110144,2.205,-0.199,-9.179,-0.004,0.013,-0.019
110247,2.207,-0.196,-9.191,-0.004,0.014,-0.019
110350,2.203,-0.199,-9.196,-0.003,0.013,-0.019
110453,2.205,-0.192,-9.208,-0.004,0.013,-0.019
110556,2.198,-0.194,-9.196,-0.004,0.013,-0.019
110659,2.207,-0.206,-9.191,-0.004,0.013,-0.019
110762,2.215,-0.196,-9.179,-0.004,0.013,-0.019
110865,2.207,-0.196,-9.187,-0.004,0.013,-0.019
110968,2.624,-0.22,-9.234,-0.01,-0.061,-0.018
111071,0.56,-0.084,-9.33,-0.076,-1.272,-0.01
111174,0.345,-0.072,-9.436,-0.011,-0.036,-0.022
111277,0.395,-0.069,-9.448,-0.003,0.015,-0.02
111380,0.4,-0.072,-9.448,-0.003,0.01,-0.019
111483,0.402,-0.065,-9.443,-0.004,0.012,-0.018
111586,0.426,-0.081,-9.436,-0.003,0.014,-0.019
111689,0.407,-0.081,-9.44,-0.003,0.014,-0.019
111792,0.402,-0.072,-9.443,-0.004,0.013,-0.019
111895,0.405,-0.074,-9.436,-0.003,0.013,-0.018
111998,0.4,-0.081,-9.45,-0.003,0.013,-0.019
112101,0.407,-0.079,-9.433,-0.003,0.013,-0.018
112204,0.405,-0.084,-9.433,-0.004,0.013,-0.018
112307,0.402,-0.077,-9.443,-0.004,0.013,-0.019
112410,0.4,-0.072,-9.445,-0.003,0.013,-0.018
112513,1.863,-0.187,-9.321,0.092,1.854,-0.021
112616,2.188,-0.196,-9.203,0.003,0.125,-0.019
112719,2.164,-0.189,-9.203,-0.003,0.017,-0.02
112822,2.162,-0.194,-9.203,-0.003,0.013,-0.019
112925,2.157,-0.199,-9.201,-0.003,0.013,-0.019
113028,2.164,-0.199,-9.194,-0.003,0.013,-0.019
113131,2.157,-0.192,-9.203,-0.003,0.013,-0.019
113234,2.155,-0.192,-9.213,-0.003,0.013,-0.019
113337,2.152,-0.204,-9.208,-0.003,0.013,-0.019
113440,2.16,-0.199,-9.194,-0.003,0.013,-0.019
113543,2.16,-0.204,-9.194,-0.003,0.013,-0.019
113646,2.164,-0.196,-9.199,-0.004,0.013,-0.019
113749,2.164,-0.196,-9.182,-0.003,0.014,-0.019
113852,2.167,-0.199,-9.199,-0.003,0.013,-0.019
113955,2.169,-0.196,-9.203,-0.004,0.013,-0.019
114058,2.16,-0.204,-9.194,-0.003,0.013,-0.019
114161,2.162,-0.187,-9.199,-0.003,0.013,-0.019
114264,2.162,-0.189,-9.179,-0.003,0.013,-0.019
114367,2.169,-0.196,-9.184,-0.004,0.013,-0.019
114470,2.162,-0.194,-9.189,-0.003,0.012,-0.019
114573,2.16,-0.194,-9.208,-0.004,0.013,-0.019
114676,2.169,-0.192,-9.196,-0.003,0.013,-0.019
114779,2.16,-0.201,-9.194,-0.003,0.012,-0.019
114882,2.157,-0.189,-9.194,-0.003,0.013,-0.019
114985,2.162,-0.189,-9.203,-0.003,0.013,-0.019
115088,2.162,-0.184,-9.215,-0.004,0.013,-0.019
115191,2.16,-0.194,-9.201,-0.003,0.013,-0.019
115294,2.169,-0.189,-9.206,-0.003,0.013,-0.019
115397,2.164,-0.192,-9.21,-0.003,0.013,-0.019
115500,2.155,-0.199,-9.187,-0.004,0.013,-0.019
115603,2.167,-0.192,-9.199,-0.003,0.013,-0.019
115706,2.164,-0.192,-9.187,-0.003,0.013,-0.019
115809,2.16,-0.196,-9.189,-0.003,0.013,-0.019
115912,2.172,-0.192,-9.191,-0.003,0.013,-0.019
116015,2.162,-0.194,-9.199,-0.004,0.013,-0.019
116118,2.167,-0.192,-9.22,-0.004,0.013,-0.019
116221,2.162,-0.196,-9.201,-0.003,0.013,-0.019
116324,2.157,-0.196,-9.196,-0.003,0.013,-0.018
116427,2.172,-0.194,-9.196,-0.003,0.013,-0.019
116530,2.16,-0.194,-9.21,-0.003,0.013,-0.019
116633,2.174,-0.192,-9.187,-0.003,0.013,-0.019
116736,2.164,-0.196,-9.201,-0.004,0.013,-0.02
116839,2.167,-0.192,-9.208,-0.003,0.013,-0.019
116942,2.162,-0.196,-9.203,-0.003,0.013,-0.019
117045,2.167,-0.199,-9.194,-0.003,0.013,-0.019
117148,2.157,-0.201,-9.191,-0.004,0.013,-0.019
117251,2.162,-0.187,-9.208,-0.003,0.013,-0.019
117354,2.16,-0.187,-9.206,-0.003,0.013,-0.019
117457,2.167,-0.184,-9.194,-0.003,0.013,-0.018
117560,2.164,-0.184,-9.199,-0.003,0.013,-0.019
117663,2.167,-0.192,-9.194,-0.003,0.013,-0.019
117766,2.164,-0.192,-9.191,-0.004,0.013,-0.019
117869,2.169,-0.199,-9.191,-0.003,0.013,-0.019
117972,2.157,-0.206,-9.199,-0.004,0.013,-0.019
118075,2.167,-0.182,-9.203,-0.003,0.013,-0.019
118178,2.167,-0.194,-9.203,-0.004,0.013,-0.019
118281,2.16,-0.196,-9.208,-0.004,0.012,-0.018
118384,2.155,-0.192,-9.189,-0.003,0.012,-0.019
118487,2.16,-0.189,-9.187,-0.003,0.013,-0.019
118590,2.169,-0.192,-9.194,-0.004,0.013,-0.019
118693,2.167,-0.196,-9.189,-0.004,0.013,-0.019
118796,2.169,-0.196,-9.196,-0.003,0.013,-0.019
118899,2.16,-0.199,-9.194,-0.003,0.013,-0.019
119002,2.167,-0.199,-9.194,-0.004,0.013,-0.019
119105,2.172,-0.187,-9.201,-0.003,0.013,-0.019
119208,2.167,-0.194,-9.184,-0.004,0.013,-0.019
119311,2.152,-0.192,-9.196,-0.004,0.013,-0.019
119414,2.172,-0.204,-9.201,-0.004,0.013,-0.019
119517,2.162,-0.192,-9.21,-0.004,0.013,-0.019
119620,2.162,-0.194,-9.203,-0.004,0.012,-0.019
119723,2.164,-0.192,-9.196,-0.004,0.013,-0.019
119826,2.157,-0.192,-9.203,-0.003,0.013,-0.019
119929,2.164,-0.199,-9.184,-0.003,0.013,-0.019
120032,2.164,-0.192,-9.182,-0.003,0.013,-0.019
120135,2.162,-0.187,-9.191,-0.003,0.013,-0.019
120238,2.167,-0.192,-9.189,-0.003,0.013,-0.019
120341,2.164,-0.187,-9.191,-0.003,0.013,-0.019
120444,2.152,-0.187,-9.191,-0.004,0.013,-0.019
120547,2.162,-0.187,-9.187,-0.004,0.013,-0.019
120650,2.157,-0.199,-9.191,-0.003,0.012,-0.019
120753,2.15,-0.192,-9.206,-0.003,0.013,-0.019
120856,2.169,-0.184,-9.208,-0.003,0.013,-0.019
120959,2.162,-0.184,-9.189,-0.003,0.013,-0.019
121062,2.155,-0.201,-9.201,-0.003,0.013,-0.019
121165,2.16,-0.194,-9.201,-0.003,0.013,-0.019
121268,2.164,-0.192,-9.194,-0.004,0.013,-0.019
121371,2.157,-0.194,-9.194,-0.003,0.013,-0.019
121474,2.162,-0.199,-9.203,-0.003,0.014,-0.019
121577,2.164,-0.199,-9.196,-0.003,0.013,-0.019
121680,2.164,-0.194,-9.187,-0.003,0.013,-0.019
121783,2.162,-0.192,-9.189,-0.003,0.013,-0.019
121886,2.162,-0.187,-9.191,-0.004,0.013,-0.019
121989,2.164,-0.196,-9.199,-0.004,0.013,-0.019
122092,2.155,-0.189,-9.179,-0.003,0.013,-0.019
122195,2.164,-0.196,-9.175,-0.003,0.013,-0.019
122298,2.164,-0.187,-9.182,-0.003,0.013,-0.019
122401,2.169,-0.187,-9.196,-0.003,0.013,-0.019
122504,2.174,-0.187,-9.194,-0.003,0.013,-0.019
122607,2.16,-0.194,-9.194,-0.004,0.013,-0.019
122710,2.157,-0.189,-9.191,-0.004,0.013,-0.019
122813,2.164,-0.194,-9.199,-0.004,0.013,-0.019
122916,2.162,-0.196,-9.203,-0.003,0.013,-0.019
123019,2.162,-0.189,-9.189,-0.003,0.013,-0.019
123122,2.155,-0.189,-9.194,-0.003,0.013,-0.018
123225,2.155,-0.192,-9.199,-0.004,0.013,-0.019
123328,2.155,-0.187,-9.194,-0.004,0.013,-0.019
123431,2.155,-0.204,-9.196,-0.004,0.013,-0.019
123534,2.16,-0.192,-9.194,-0.003,0.013,-0.019
123637,2.16,-0.199,-9.189,-0.003,0.013,-0.019
123740,2.16,-0.184,-9.187,-0.003,0.013,-0.019
123843,2.162,-0.196,-9.184,-0.003,0.013,-0.019
123946,2.164,-0.182,-9.187,-0.003,0.013,-0.019
124049,2.169,-0.196,-9.194,-0.003,0.013,-0.019
124152,2.162,-0.196,-9.196,-0.004,0.013,-0.019
124255,2.169,-0.199,-9.191,-0.003,0.013,-0.019
124358,2.16,-0.194,-9.189,-0.003,0.013,-0.019
124461,2.167,-0.194,-9.187,-0.003,0.013,-0.019
124564,2.152,-0.194,-9.206,-0.003,0.013,-0.019
124667,2.155,-0.189,-9.196,-0.003,0.013,-0.019
124770,2.164,-0.184,-9.191,-0.003,0.013,-0.019
124873,2.157,-0.189,-9.206,-0.003,0.013,-0.019
124976,2.167,-0.194,-9.194,-0.003,0.013,-0.019
125079,2.157,-0.199,-9.182,-0.003,0.013,-0.019
125182,2.16,-0.201,-9.182,-0.003,0.013,-0.019
125285,2.162,-0.192,-9.194,-0.003,0.013,-0.019
125388,2.164,-0.187,-9.199,-0.004,0.013,-0.019
125491,2.167,-0.192,-9.191,-0.003,0.013,-0.019
125594,2.164,-0.206,-9.194,-0.003,0.013,-0.019
125697,2.167,-0.196,-9.206,-0.004,0.013,-0.019
125800,2.167,-0.192,-9.21,-0.003,0.012,-0.019
125903,2.157,-0.192,-9.189,-0.003,0.013,-0.019
126006,2.164,-0.192,-9.189,-0.004,0.013,-0.019
126109,2.167,-0.201,-9.182,-0.004,0.013,-0.019
126212,2.152,-0.187,-9.199,-0.003,0.013,-0.019
126315,2.167,-0.196,-9.206,-0.003,0.013,-0.019
126418,2.164,-0.194,-9.201,-0.004,0.013,-0.019
126521,2.15,-0.208,-9.179,-0.003,0.013,-0.019
126624,2.162,-0.189,-9.184,-0.004,0.013,-0.019
126727,2.162,-0.189,-9.191,-0.003,0.012,-0.019
126830,2.167,-0.192,-9.199,-0.003,0.013,-0.019
126933,2.167,-0.199,-9.201,-0.003,0.012,-0.019
127036,2.157,-0.192,-9.199,-0.003,0.013,-0.019
127139,2.164,-0.187,-9.179,-0.003,0.013,-0.019
127242,2.169,-0.201,-9.184,-0.003,0.013,-0.019
127345,2.157,-0.187,-9.194,-0.004,0.013,-0.019
127448,2.16,-0.189,-9.203,-0.004,0.012,-0.019
127551,2.148,-0.194,-9.199,-0.004,0.013,-0.019
127654,2.169,-0.201,-9.191,-0.004,0.013,-0.018
127757,2.174,-0.201,-9.189,-0.004,0.013,-0.019
127860,2.167,-0.194,-9.184,-0.003,0.013,-0.019
127963,2.164,-0.201,-9.199,-0.004,0.012,-0.019
128066,2.164,-0.194,-9.199,-0.004,0.013,-0.019
128169,2.164,-0.194,-9.201,-0.003,0.013,-0.019
128272,2.16,-0.196,-9.199,-0.003,0.013,-0.019
128375,2.164,-0.192,-9.206,-0.003,0.013,-0.019
128478,2.172,-0.196,-9.189,-0.003,0.013,-0.019
128581,2.167,-0.194,-9.189,-0.004,0.013,-0.019
128684,2.169,-0.192,-9.199,-0.003,0.013,-0.019
128787,2.162,-0.194,-9.191,-0.003,0.013,-0.019
128890,2.167,-0.196,-9.199,-0.003,0.013,-0.019
128993,2.162,-0.189,-9.187,-0.003,0.012,-0.019
129096,2.152,-0.194,-9.196,-0.004,0.013,-0.019
129199,2.174,-0.184,-9.201,-0.003,0.013,-0.019
129302,2.162,-0.201,-9.206,-0.003,0.013,-0.019
129405,2.157,-0.196,-9.203,-0.003,0.013,-0.019
129508,2.162,-0.196,-9.196,-0.003,0.013,-0.019
129611,2.15,-0.189,-9.177,-0.003,0.013,-0.019
129714,2.155,-0.187,-9.199,-0.003,0.013,-0.019
129817,2.162,-0.192,-9.208,-0.003,0.013,-0.019
129920,2.164,-0.192,-9.199,-0.003,0.013,-0.019
130023,2.16,-0.192,-9.199,-0.003,0.013,-0.019
130126,2.162,-0.196,-9.206,-0.003,0.013,-0.019
130229,2.16,-0.194,-9.206,-0.003,0.013,-0.019
130332,2.16,-0.189,-9.191,-0.003,0.013,-0.019
130435,2.167,-0.196,-9.184,-0.003,0.012,-0.019
130538,2.162,-0.192,-9.203,-0.003,0.013,-0.019
130641,2.169,-0.192,-9.201,-0.003,0.013,-0.019
130744,2.164,-0.192,-9.203,-0.004,0.013,-0.019
130847,2.164,-0.201,-9.187,-0.004,0.013,-0.019
130950,2.162,-0.187,-9.182,-0.003,0.012,-0.019
131053,2.164,-0.192,-9.189,-0.004,0.013,-0.019
131156,2.164,-0.204,-9.191,-0.003,0.013,-0.019
131259,2.172,-0.194,-9.194,-0.003,0.012,-0.019
131362,2.167,-0.189,-9.196,-0.004,0.013,-0.019
131465,2.167,-0.18,-9.199,-0.003,0.013,-0.019
131568,2.15,-0.189,-9.196,-0.003,0.012,-0.019
131671,2.167,-0.187,-9.201,-0.003,0.013,-0.019
131774,2.167,-0.187,-9.194,-0.003,0.013,-0.019
131877,2.164,-0.189,-9.177,-0.004,0.013,-0.019
131980,2.164,-0.206,-9.194,-0.003,0.013,-0.019
132083,2.16,-0.201,-9.177,-0.004,0.013,-0.019
132186,2.157,-0.194,-9.194,-0.004,0.013,-0.019
132289,2.164,-0.192,-9.199,-0.003,0.013,-0.019
132392,2.162,-0.199,-9.191,-0.003,0.013,-0.019
132495,2.16,-0.206,-9.199,-0.003,0.013,-0.019
132598,2.155,-0.192,-9.194,-0.003,0.013,-0.019
132701,2.145,-0.192,-9.175,-0.004,0.013,-0.019
132804,2.167,-0.192,-9.196,-0.003,0.013,-0.019
132907,2.148,-0.194,-9.206,-0.003,0.013,-0.019
133010,2.164,-0.184,-9.194,-0.003,0.013,-0.019
133113,2.164,-0.199,-9.182,-0.004,0.013,-0.019
133216,2.16,-0.184,-9.182,-0.004,0.013,-0.019
133319,2.167,-0.192,-9.196,-0.003,0.013,-0.019
133422,2.172,-0.189,-9.194,-0.003,0.013,-0.019
133525,2.162,-0.199,-9.189,-0.004,0.013,-0.019
133628,2.164,-0.194,-9.203,-0.003,0.013,-0.019
133731,2.162,-0.189,-9.187,-0.003,0.013,-0.019
133834,2.16,-0.204,-9.199,-0.003,0.013,-0.019
133937,2.157,-0.194,-9.191,-0.004,0.013,-0.019
134040,2.155,-0.204,-9.199,-0.003,0.013,-0.019
134143,2.164,-0.192,-9.201,-0.003,0.013,-0.019
134246,2.16,-0.192,-9.189,-0.003,0.013,-0.018
134349,2.16,-0.199,-9.196,-0.004,0.013,-0.019
134452,2.167,-0.192,-9.196,-0.003,0.013,-0.019
134555,2.167,-0.192,-9.177,-0.003,0.013,-0.019
134658,2.162,-0.196,-9.194,-0.003,0.013,-0.019
134761,2.16,-0.196,-9.196,-0.003,0.013,-0.019
134864,2.16,-0.196,-9.179,-0.004,0.013,-0.019
134967,2.162,-0.192,-9.177,-0.003,0.013,-0.019
135070,2.157,-0.192,-9.201,-0.003,0.013,-0.019
135173,2.167,-0.194,-9.194,-0.004,0.013,-0.019
135276,2.167,-0.201,-9.184,-0.003,0.013,-0.019
135379,2.152,-0.206,-9.191,-0.003,0.013,-0.019
135482,2.164,-0.192,-9.179,-0.003,0.013,-0.019
135585,2.162,-0.201,-9.177,-0.003,0.013,-0.019
135688,2.164,-0.182,-9.184,-0.003,0.013,-0.019
135791,2.167,-0.192,-9.184,-0.003,0.013,-0.019
135894,2.164,-0.201,-9.196,-0.003,0.013,-0.019
135997,2.164,-0.194,-9.182,-0.004,0.013,-0.019
136100,2.164,-0.192,-9.196,-0.004,0.013,-0.019
136203,2.164,-0.196,-9.189,-0.003,0.013,-0.019
136306,2.164,-0.194,-9.189,-0.003,0.012,-0.019
136409,2.157,-0.196,-9.201,-0.003,0.012,-0.019
136512,2.172,-0.189,-9.189,-0.003,0.013,-0.019
136615,2.157,-0.196,-9.208,-0.004,0.013,-0.019
136718,2.16,-0.192,-9.201,-0.003,0.013,-0.019
136821,2.172,-0.189,-9.196,-0.003,0.013,-0.019
136924,2.167,-0.189,-9.191,-0.004,0.012,-0.019
137027,2.162,-0.189,-9.189,-0.003,0.013,-0.019
137130,2.172,-0.194,-9.182,-0.004,0.013,-0.019
137233,2.16,-0.187,-9.196,-0.003,0.013,-0.019
137336,2.162,-0.184,-9.189,-0.003,0.013,-0.019
137439,2.152,-0.196,-9.199,-0.003,0.013,-0.019
137542,2.157,-0.187,-9.191,-0.004,0.013,-0.019
137645,2.162,-0.182,-9.196,-0.003,0.013,-0.019
137748,2.169,-0.187,-9.177,-0.003,0.013,-0.019
137851,2.167,-0.187,-9.196,-0.003,0.013,-0.019
137954,2.155,-0.187,-9.184,-0.003,0.013,-0.019
138057,2.15,-0.184,-9.199,-0.003,0.013,-0.019
138160,2.16,-0.194,-9.199,-0.003,0.013,-0.019
138263,2.16,-0.194,-9.194,-0.003,0.013,-0.019
138366,2.162,-0.187,-9.179,-0.003,0.013,-0.019
138469,2.16,-0.187,-9.184,-0.003,0.013,-0.02
138572,2.16,-0.189,-9.194,-0.004,0.013,-0.019
138675,2.167,-0.194,-9.194,-0.003,0.013,-0.019
138778,2.157,-0.189,-9.199,-0.003,0.013,-0.019
138881,2.162,-0.199,-9.194,-0.004,0.013,-0.019
138984,2.162,-0.192,-9.189,-0.003,0.013,-0.019
139087,2.162,-0.189,-9.196,-0.003,0.013,-0.019
139190,2.162,-0.194,-9.201,-0.003,0.013,-0.02
139293,2.155,-0.192,-9.208,-0.003,0.013,-0.018
139396,2.167,-0.187,-9.196,-0.003,0.013,-0.019
139499,2.157,-0.187,-9.189,-0.004,0.013,-0.019
139602,2.157,-0.189,-9.194,-0.003,0.013,-0.019
139705,2.162,-0.187,-9.194,-0.003,0.013,-0.019
139808,2.172,-0.194,-9.184,-0.003,0.013,-0.019
139911,2.152,-0.189,-9.187,-0.003,0.013,-0.019
140014,2.16,-0.199,-9.194,-0.003,0.013,-0.019
140117,2.16,-0.201,-9.194,-0.003,0.012,-0.019
140220,2.157,-0.206,-9.201,-0.003,0.013,-0.019
140323,2.155,-0.192,-9.196,-0.003,0.012,-0.019
140426,2.16,-0.208,-9.184,-0.003,0.012,-0.019
140529,2.167,-0.199,-9.17,-0.003,0.013,-0.019
140632,2.172,-0.192,-9.201,-0.004,0.013,-0.019
140735,2.16,-0.189,-9.191,-0.003,0.013,-0.019
140838,2.174,-0.204,-9.199,-0.003,0.013,-0.019
140941,2.162,-0.199,-9.189,-0.004,0.013,-0.019
141044,2.164,-0.189,-9.187,-0.003,0.013,-0.019
141147,2.157,-0.199,-9.187,-0.003,0.013,-0.019
141250,2.16,-0.189,-9.189,-0.003,0.013,-0.019
141353,2.164,-0.192,-9.194,-0.004,0.013,-0.019
141456,2.172,-0.192,-9.189,-0.003,0.013,-0.019
141559,2.164,-0.204,-9.201,-0.003,0.013,-0.019
141662,2.162,-0.199,-9.175,-0.003,0.013,-0.019
141765,2.167,-0.196,-9.194,-0.003,0.013,-0.019
141868,2.167,-0.187,-9.194,-0.003,0.013,-0.019
141971,2.176,-0.192,-9.189,-0.003,0.013,-0.018
142074,2.164,-0.208,-9.182,-0.004,0.013,-0.019
142177,2.176,-0.201,-9.184,-0.003,0.013,-0.019
142280,2.172,-0.199,-9.179,-0.003,0.013,-0.019
142383,2.174,-0.196,-9.182,-0.003,0.013,-0.019
142486,2.16,-0.187,-9.196,-0.003,0.013,-0.019
142589,2.162,-0.196,-9.206,-0.003,0.012,-0.019
142692,2.167,-0.194,-9.213,-0.003,0.013,-0.019
142795,2.162,-0.187,-9.201,-0.003,0.013,-0.018
142898,2.162,-0.194,-9.187,-0.003,0.013,-0.019
143001,2.16,-0.196,-9.191,-0.003,0.013,-0.019
143104,2.155,-0.187,-9.179,-0.003,0.013,-0.018
143207,2.167,-0.196,-9.179,-0.003,0.013,-0.018
143310,2.155,-0.199,-9.199,-0.003,0.013,-0.019
143413,2.162,-0.187,-9.196,-0.003,0.013,-0.019
143516,2.172,-0.189,-9.21,-0.003,0.013,-0.019
143619,2.155,-0.192,-9.196,-0.004,0.013,-0.019
143722,2.157,-0.206,-9.196,-0.003,0.013,-0.019
143825,2.155,-0.196,-9.182,-0.003,0.013,-0.019
143928,2.164,-0.199,-9.184,-0.003,0.013,-0.019
144031,2.16,-0.189,-9.184,-0.003,0.013,-0.019
144134,2.155,-0.196,-9.203,-0.003,0.013,-0.019
144237,2.164,-0.184,-9.191,-0.004,0.012,-0.019
144340,2.172,-0.177,-9.187,-0.003,0.013,-0.019
144443,2.157,-0.194,-9.194,-0.003,0.013,-0.019
144546,2.162,-0.192,-9.184,-0.003,0.013,-0.019
144649,2.162,-0.194,-9.189,-0.003,0.013,-0.019
144752,2.164,-0.196,-9.184,-0.003,0.013,-0.019
144855,2.167,-0.184,-9.194,-0.003,0.012,-0.019
144958,2.152,-0.18,-9.191,-0.003,0.013,-0.019
145061,2.16,-0.201,-9.177,-0.003,0.013,-0.019
145164,2.162,-0.199,-9.184,-0.003,0.013,-0.019
145267,2.162,-0.211,-9.189,-0.003,0.013,-0.019
145370,2.162,-0.192,-9.177,-0.003,0.013,-0.019
145473,2.162,-0.196,-9.184,-0.003,0.013,-0.019
145576,2.157,-0.196,-9.194,-0.003,0.012,-0.019
145679,2.167,-0.187,-9.182,-0.004,0.013,-0.019
145782,2.164,-0.194,-9.194,-0.003,0.013,-0.019
145885,2.167,-0.199,-9.191,-0.003,0.013,-0.019
145988,2.162,-0.184,-9.182,-0.003,0.013,-0.019
146091,2.157,-0.196,-9.189,-0.003,0.013,-0.019
146194,2.172,-0.194,-9.194,-0.003,0.013,-0.019
146297,2.157,-0.199,-9.201,-0.003,0.013,-0.019
146400,2.16,-0.189,-9.206,-0.003,0.013,-0.019
146503,2.162,-0.187,-9.201,-0.003,0.013,-0.019
146606,2.155,-0.184,-9.191,-0.003,0.013,-0.019
146709,2.157,-0.196,-9.187,-0.004,0.013,-0.019
146812,2.155,-0.194,-9.175,-0.003,0.013,-0.019
146915,2.16,-0.196,-9.199,-0.003,0.013,-0.019
147018,2.157,-0.189,-9.189,-0.003,0.013,-0.019
147121,2.162,-0.189,-9.194,-0.003,0.013,-0.019
147224,2.155,-0.196,-9.191,-0.003,0.013,-0.019
147327,2.172,-0.189,-9.187,-0.003,0.013,-0.019
147430,2.16,-0.211,-9.187,-0.003,0.013,-0.019
147533,2.162,-0.196,-9.187,-0.003,0.013,-0.019
147636,2.164,-0.192,-9.203,-0.003,0.013,-0.019
147739,2.174,-0.194,-9.194,-0.003,0.013,-0.019
147842,2.162,-0.201,-9.203,-0.003,0.013,-0.019
147945,2.172,-0.201,-9.215,-0.003,0.013,-0.019
148048,2.164,-0.184,-9.182,-0.003,0.013,-0.019
148151,2.155,-0.201,-9.184,-0.004,0.013,-0.018
148254,2.174,-0.194,-9.184,-0.003,0.013,-0.019
148357,2.16,-0.196,-9.177,-0.003,0.013,-0.019
148460,2.172,-0.187,-9.189,-0.003,0.013,-0.019
148563,2.169,-0.194,-9.191,-0.003,0.013,-0.019
148666,2.16,-0.194,-9.191,-0.003,0.013,-0.019
148769,2.155,-0.206,-9.199,-0.003,0.013,-0.019
148872,2.157,-0.192,-9.194,-0.003,0.013,-0.019
148975,2.169,-0.187,-9.177,-0.003,0.013,-0.018
149078,2.164,-0.196,-9.194,-0.003,0.012,-0.019
149181,2.157,-0.199,-9.182,-0.003,0.013,-0.019
149284,2.164,-0.196,-9.182,-0.003,0.013,-0.019
149387,2.162,-0.196,-9.179,-0.003,0.013,-0.019
149490,2.169,-0.196,-9.189,-0.003,0.013,-0.019
149593,2.164,-0.201,-9.191,-0.003,0.013,-0.019
149696,2.157,-0.187,-9.182,-0.003,0.013,-0.019
149799,2.157,-0.199,-9.189,-0.003,0.013,-0.019
149902,2.162,-0.187,-9.189,-0.003,0.013,-0.019
150005,2.164,-0.196,-9.199,-0.003,0.013,-0.019
150108,2.164,-0.194,-9.187,-0.003,0.013,-0.019
150211,2.157,-0.204,-9.184,-0.004,0.013,-0.019
150314,2.16,-0.194,-9.187,-0.003,0.012,-0.019
150417,2.157,-0.192,-9.179,-0.003,0.013,-0.019
150520,2.16,-0.189,-9.189,-0.003,0.013,-0.019
150623,2.162,-0.201,-9.196,-0.003,0.013,-0.019
150726,2.164,-0.189,-9.191,-0.003,0.012,-0.019
150829,2.167,-0.192,-9.199,-0.003,0.013,-0.019
150932,2.169,-0.206,-9.189,-0.003,0.013,-0.019
151035,2.16,-0.194,-9.201,-0.003,0.013,-0.018
151138,2.167,-0.194,-9.182,-0.004,0.013,-0.019
151241,2.162,-0.194,-9.187,-0.003,0.013,-0.019
151344,2.169,-0.196,-9.21,-0.004,0.013,-0.019
151447,2.167,-0.192,-9.191,-0.003,0.013,-0.019
151550,2.167,-0.196,-9.191,-0.003,0.013,-0.019
151653,2.16,-0.199,-9.182,-0.003,0.013,-0.019
151756,2.162,-0.194,-9.184,-0.003,0.013,-0.018
151859,2.164,-0.194,-9.179,-0.004,0.013,-0.019
151962,2.16,-0.187,-9.191,-0.003,0.013,-0.019
152065,2.164,-0.194,-9.182,-0.003,0.013,-0.019
152168,2.162,-0.206,-9.184,-0.003,0.013,-0.019
152271,2.157,-0.182,-9.189,-0.003,0.013,-0.019
152374,2.167,-0.192,-9.199,-0.003,0.013,-0.019
152477,2.16,-0.192,-9.187,-0.003,0.013,-0.019
152580,2.164,-0.184,-9.189,-0.004,0.013,-0.019
152683,2.162,-0.201,-9.179,-0.003,0.013,-0.019
152786,2.162,-0.189,-9.182,-0.003,0.013,-0.019
152889,2.16,-0.196,-9.184,-0.003,0.013,-0.019
152992,2.172,-0.184,-9.189,-0.003,0.013,-0.019
153095,2.164,-0.192,-9.179,-0.003,0.013,-0.019
153198,2.167,-0.192,-9.191,-0.003,0.013,-0.019
153301,2.167,-0.189,-9.187,-0.003,0.013,-0.019
153404,2.167,-0.204,-9.175,-0.003,0.013,-0.019
153507,2.167,-0.194,-9.21,-0.003,0.013,-0.019
153610,2.162,-0.196,-9.191,-0.003,0.013,-0.019
153713,2.164,-0.194,-9.199,-0.003,0.013,-0.019
153816,2.164,-0.192,-9.177,-0.003,0.012,-0.019
153919,2.162,-0.189,-9.194,-0.003,0.013,-0.019
154022,2.162,-0.184,-9.177,-0.003,0.013,-0.019
154125,2.167,-0.182,-9.187,-0.003,0.013,-0.018
154228,2.164,-0.196,-9.182,-0.003,0.013,-0.019
154331,2.162,-0.194,-9.189,-0.003,0.013,-0.019
154434,2.164,-0.189,-9.189,-0.003,0.013,-0.02
154537,2.164,-0.182,-9.201,-0.003,0.013,-0.019
154640,2.162,-0.194,-9.189,-0.003,0.013,-0.019
154743,2.16,-0.192,-9.187,-0.003,0.013,-0.019
154846,2.172,-0.201,-9.194,-0.003,0.013,-0.019
154949,2.162,-0.201,-9.189,-0.004,0.013,-0.019
155052,2.162,-0.201,-9.191,-0.004,0.013,-0.019
155155,2.164,-0.194,-9.194,-0.003,0.013,-0.019
155258,2.167,-0.194,-9.199,-0.003,0.012,-0.019
155361,2.167,-0.184,-9.182,-0.003,0.013,-0.019
155464,2.16,-0.192,-9.179,-0.003,0.013,-0.019
155567,2.167,-0.187,-9.213,-0.003,0.013,-0.019
155670,2.162,-0.182,-9.189,-0.003,0.013,-0.019
155773,2.169,-0.199,-9.208,-0.003,0.013,-0.018
155876,2.162,-0.184,-9.184,-0.003,0.012,-0.019
155979,2.174,-0.196,-9.191,-0.003,0.013,-0.019
156082,2.164,-0.201,-9.179,-0.003,0.013,-0.019
156185,2.164,-0.201,-9.172,-0.003,0.013,-0.019
156288,2.164,-0.201,-9.182,-0.003,0.013,-0.019
156391,2.16,-0.189,-9.177,-0.003,0.013,-0.019
156494,2.164,-0.192,-9.191,-0.003,0.013,-0.019
156597,2.162,-0.192,-9.189,-0.003,0.013,-0.019
156700,2.164,-0.184,-9.177,-0.003,0.013,-0.019
156803,2.157,-0.192,-9.203,-0.003,0.013,-0.019
156906,2.157,-0.196,-9.184,-0.003,0.013,-0.019
157009,2.169,-0.194,-9.194,-0.003,0.013,-0.019
157112,2.174,-0.196,-9.189,-0.003,0.013,-0.019
157215,2.162,-0.194,-9.187,-0.003,0.013,-0.019
157318,2.169,-0.194,-9.184,-0.003,0.013,-0.019
157421,2.16,-0.199,-9.189,-0.003,0.012,-0.019
157524,2.167,-0.189,-9.194,-0.004,0.013,-0.019
157627,2.155,-0.187,-9.179,-0.003,0.013,-0.019
157730,2.164,-0.199,-9.184,-0.003,0.013,-0.019
157833,2.172,-0.199,-9.179,-0.003,0.013,-0.018
157936,2.16,-0.196,-9.179,-0.003,0.013,-0.019
158039,2.162,-0.192,-9.199,-0.003,0.013,-0.019
158142,2.16,-0.189,-9.191,-0.003,0.013,-0.019
158245,2.164,-0.196,-9.191,-0.003,0.013,-0.019
158348,2.162,-0.192,-9.191,-0.003,0.013,-0.019
158451,2.157,-0.192,-9.206,-0.003,0.013,-0.019
158554,2.16,-0.192,-9.187,-0.003,0.013,-0.019
158657,2.169,-0.187,-9.184,-0.003,0.013,-0.019
158760,2.15,-0.189,-9.179,-0.003,0.013,-0.019
158863,2.157,-0.199,-9.191,-0.003,0.013,-0.019
158966,2.169,-0.196,-9.177,-0.003,0.012,-0.019
159069,2.162,-0.192,-9.184,-0.003,0.013,-0.019
159172,2.164,-0.184,-9.175,-0.004,0.013,-0.019
159275,2.162,-0.189,-9.196,-0.003,0.013,-0.019
159378,2.162,-0.189,-9.199,-0.003,0.013,-0.019
159481,2.152,-0.189,-9.201,-0.003,0.013,-0.019
159584,2.164,-0.196,-9.191,-0.004,0.013,-0.019
159687,2.167,-0.192,-9.187,-0.003,0.013,-0.019
159790,2.162,-0.199,-9.191,-0.003,0.013,-0.019
159893,2.164,-0.182,-9.184,-0.003,0.013,-0.019
159996,2.16,-0.18,-9.194,-0.003,0.013,-0.019
160099,2.167,-0.187,-9.184,-0.004,0.013,-0.019
160202,2.167,-0.199,-9.184,-0.003,0.013,-0.019
160305,2.162,-0.184,-9.177,-0.003,0.013,-0.019
160408,2.162,-0.189,-9.179,-0.003,0.013,-0.019
160511,2.164,-0.194,-9.179,-0.003,0.013,-0.018
160614,2.167,-0.184,-9.194,-0.003,0.013,-0.019
160717,2.164,-0.187,-9.196,-0.003,0.013,-0.019
160820,2.152,-0.194,-9.177,-0.003,0.013,-0.019
160923,2.162,-0.194,-9.184,-0.003,0.013,-0.019
161026,2.155,-0.187,-9.201,-0.003,0.013,-0.019
161129,2.16,-0.199,-9.17,-0.003,0.013,-0.019
161232,2.16,-0.196,-9.184,-0.003,0.013,-0.019
161335,2.152,-0.206,-9.184,-0.003,0.013,-0.019
161438,2.16,-0.199,-9.196,-0.003,0.013,-0.019
161541,2.157,-0.194,-9.199,-0.003,0.013,-0.019
161644,2.157,-0.196,-9.187,-0.004,0.013,-0.019
161747,2.157,-0.196,-9.179,-0.004,0.013,-0.019
161850,2.155,-0.194,-9.177,-0.003,0.013,-0.019
161953,2.172,-0.192,-9.191,-0.003,0.013,-0.019
162056,2.162,-0.187,-9.177,-0.003,0.013,-0.019
162159,2.169,-0.192,-9.189,-0.003,0.012,-0.019
162262,2.152,-0.194,-9.196,-0.003,0.013,-0.019
162365,2.16,-0.194,-9.191,-0.003,0.013,-0.018
162468,2.162,-0.208,-9.191,-0.003,0.013,-0.019
162571,2.155,-0.192,-9.184,-0.003,0.013,-0.019
162674,2.164,-0.192,-9.177,-0.003,0.013,-0.019
162777,2.157,-0.187,-9.189,-0.003,0.013,-0.018
162880,2.155,-0.192,-9.175,-0.003,0.013,-0.019
162983,2.155,-0.189,-9.194,-0.003,0.013,-0.019
163086,2.167,-0.189,-9.203,-0.003,0.013,-0.019
163189,2.162,-0.187,-9.196,-0.003,0.013,-0.019
163292,2.169,-0.194,-9.189,-0.003,0.013,-0.019
163395,2.167,-0.199,-9.189,-0.003,0.013,-0.019
163498,2.162,-0.194,-9.184,-0.003,0.012,-0.019
163601,2.167,-0.189,-9.191,-0.003,0.013,-0.019
163704,2.16,-0.189,-9.179,-0.004,0.013,-0.019
163807,2.162,-0.192,-9.182,-0.003,0.012,-0.019
163910,2.152,-0.196,-9.177,-0.003,0.013,-0.019
164013,2.16,-0.206,-9.179,-0.003,0.013,-0.019
164116,2.167,-0.196,-9.184,-0.003,0.013,-0.019
164219,2.164,-0.187,-9.184,-0.003,0.013,-0.019
164322,2.167,-0.192,-9.191,-0.004,0.013,-0.019
164425,2.162,-0.201,-9.187,-0.003,0.014,-0.019
164528,2.157,-0.194,-9.189,-0.003,0.013,-0.019
164631,2.16,-0.199,-9.182,-0.003,0.013,-0.019
164734,2.152,-0.194,-9.172,-0.003,0.013,-0.019
164837,2.16,-0.196,-9.179,-0.003,0.013,-0.019
164940,2.16,-0.192,-9.182,-0.003,0.013,-0.019
165043,2.164,-0.194,-9.187,-0.003,0.013,-0.019
165146,2.155,-0.192,-9.187,-0.003,0.013,-0.02
165249,2.15,-0.196,-9.194,-0.003,0.013,-0.019
165352,2.162,-0.192,-9.187,-0.003,0.013,-0.019
165455,2.162,-0.194,-9.184,-0.004,0.013,-0.019
165558,2.181,-0.189,-9.184,-0.003,0.013,-0.018
165661,2.155,-0.187,-9.187,-0.003,0.013,-0.019
165764,2.169,-0.199,-9.184,-0.003,0.013,-0.019
165867,2.155,-0.196,-9.189,-0.003,0.013,-0.019
165970,2.162,-0.184,-9.179,-0.003,0.013,-0.019
166073,2.169,-0.177,-9.184,-0.003,0.013,-0.019
166176,2.164,-0.189,-9.187,-0.004,0.013,-0.019
166279,2.167,-0.194,-9.196,-0.003,0.012,-0.018
166382,2.169,-0.199,-9.179,-0.003,0.013,-0.019
166485,2.167,-0.192,-9.191,-0.003,0.013,-0.019
166588,2.162,-0.192,-9.187,-0.003,0.013,-0.019
166691,2.167,-0.196,-9.187,-0.003,0.013,-0.019
166794,2.164,-0.192,-9.182,-0.004,0.012,-0.019
166897,2.167,-0.194,-9.175,-0.003,0.013,-0.019
167000,2.162,-0.187,-9.179,-0.003,0.013,-0.019
167103,2.162,-0.189,-9.189,-0.003,0.013,-0.019
167206,2.155,-0.194,-9.194,-0.003,0.013,-0.019
167309,2.16,-0.192,-9.172,-0.003,0.013,-0.019
167412,2.16,-0.196,-9.206,-0.003,0.013,-0.019
167515,2.169,-0.192,-9.189,-0.003,0.013,-0.019
167618,2.164,-0.196,-9.187,-0.003,0.013,-0.019
167721,2.145,-0.192,-9.191,-0.003,0.013,-0.019
167824,2.16,-0.194,-9.189,-0.003,0.013,-0.019
167927,2.155,-0.189,-9.194,-0.003,0.013,-0.019
168030,2.16,-0.189,-9.196,-0.003,0.013,-0.019
168133,2.157,-0.194,-9.184,-0.003,0.013,-0.019
168236,2.15,-0.194,-9.179,-0.003,0.013,-0.019
168339,2.16,-0.201,-9.187,-0.003,0.013,-0.019
168442,2.167,-0.192,-9.187,-0.003,0.013,-0.019
168545,2.167,-0.199,-9.172,-0.003,0.013,-0.019
168648,2.16,-0.192,-9.189,-0.003,0.013,-0.019
168751,2.164,-0.196,-9.189,-0.004,0.013,-0.019
168854,2.174,-0.196,-9.187,-0.004,0.012,-0.018
168957,2.167,-0.184,-9.201,-0.003,0.013,-0.019
169060,2.155,-0.192,-9.191,-0.004,0.013,-0.019
169163,2.162,-0.201,-9.189,-0.003,0.013,-0.019
169266,2.155,-0.187,-9.194,-0.003,0.013,-0.019
169369,2.162,-0.187,-9.191,-0.003,0.013,-0.019
169472,2.16,-0.199,-9.187,-0.003,0.012,-0.019
169575,2.167,-0.189,-9.189,-0.003,0.013,-0.019
169678,2.164,-0.194,-9.206,-0.003,0.013,-0.019
169781,2.16,-0.189,-9.179,-0.003,0.012,-0.019
169884,2.162,-0.192,-9.187,-0.003,0.013,-0.019
169987,2.164,-0.194,-9.189,-0.003,0.013,-0.019
170090,2.174,-0.196,-9.182,-0.003,0.013,-0.019
170193,2.167,-0.196,-9.194,-0.003,0.013,-0.019
170296,2.169,-0.189,-9.201,-0.003,0.013,-0.019
170399,2.169,-0.189,-9.187,-0.003,0.013,-0.019
170502,2.162,-0.194,-9.184,-0.003,0.013,-0.02
170605,2.169,-0.184,-9.179,-0.003,0.013,-0.018
170708,2.169,-0.187,-9.196,-0.003,0.013,-0.019
170811,2.157,-0.194,-9.196,-0.003,0.013,-0.019
170914,2.16,-0.184,-9.165,-0.003,0.013,-0.019
171017,2.169,-0.196,-9.179,-0.003,0.013,-0.019
171120,2.164,-0.192,-9.189,-0.004,0.013,-0.019
171223,2.172,-0.187,-9.182,-0.003,0.013,-0.018
171326,2.16,-0.194,-9.187,-0.003,0.013,-0.019
171429,2.162,-0.201,-9.179,-0.003,0.013,-0.019
171532,2.162,-0.201,-9.175,-0.003,0.013,-0.019
171635,2.16,-0.189,-9.203,-0.003,0.013,-0.019
171738,2.157,-0.184,-9.194,-0.003,0.013,-0.019
171841,2.157,-0.201,-9.179,-0.003,0.013,-0.019
171944,2.152,-0.189,-9.184,-0.004,0.013,-0.019
172047,2.155,-0.187,-9.191,-0.003,0.013,-0.019
172150,2.157,-0.196,-9.184,-0.003,0.013,-0.019
172253,2.15,-0.194,-9.189,-0.004,0.012,-0.019
172356,2.164,-0.192,-9.182,-0.003,0.012,-0.019
172459,2.152,-0.192,-9.189,-0.003,0.013,-0.019
172562,2.157,-0.18,-9.189,-0.003,0.013,-0.019
172665,2.167,-0.189,-9.177,-0.003,0.013,-0.019
172768,2.155,-0.192,-9.177,-0.003,0.013,-0.019
172871,2.164,-0.182,-9.184,-0.004,0.013,-0.019
172974,2.169,-0.192,-9.196,-0.003,0.013,-0.019
173077,2.162,-0.187,-9.187,-0.003,0.013,-0.019
173180,2.162,-0.187,-9.177,-0.003,0.013,-0.019
173283,2.162,-0.184,-9.177,-0.003,0.013,-0.019
173386,2.162,-0.189,-9.184,-0.003,0.013,-0.019
173489,2.157,-0.199,-9.194,-0.004,0.013,-0.019
173592,2.167,-0.192,-9.184,-0.003,0.013,-0.019
173695,2.162,-0.196,-9.199,-0.003,0.013,-0.019
173798,2.152,-0.192,-9.187,-0.003,0.013,-0.019
173901,2.162,-0.189,-9.172,-0.003,0.013,-0.019
174004,2.148,-0.194,-9.199,-0.003,0.013,-0.019
174107,2.16,-0.192,-9.191,-0.003,0.013,-0.018
174210,2.162,-0.189,-9.191,-0.003,0.013,-0.019
174313,2.169,-0.192,-9.194,-0.003,0.013,-0.019
174416,2.169,-0.187,-9.177,-0.003,0.013,-0.019
174519,2.155,-0.199,-9.184,-0.003,0.013,-0.019
174622,2.162,-0.18,-9.167,-0.003,0.013,-0.019
174725,2.157,-0.199,-9.189,-0.003,0.013,-0.019
174828,2.155,-0.201,-9.194,-0.003,0.013,-0.019
174931,2.169,-0.201,-9.17,-0.003,0.013,-0.019
175034,2.169,-0.192,-9.184,-0.003,0.013,-0.019
175137,2.162,-0.189,-9.201,-0.003,0.013,-0.02
175240,2.157,-0.196,-9.194,-0.003,0.013,-0.019
175343,2.162,-0.194,-9.189,-0.003,0.013,-0.019
175446,2.164,-0.189,-9.187,-0.003,0.013,-0.019
175549,2.152,-0.184,-9.187,-0.003,0.013,-0.019
175652,2.169,-0.201,-9.189,-0.003,0.013,-0.019
175755,2.155,-0.201,-9.177,-0.003,0.013,-0.019
175858,2.167,-0.187,-9.199,-0.003,0.013,-0.019
175961,2.155,-0.196,-9.196,-0.003,0.013,-0.019
176064,2.164,-0.194,-9.182,-0.003,0.013,-0.019
176167,2.162,-0.204,-9.191,-0.003,0.013,-0.019
176270,2.162,-0.184,-9.191,-0.003,0.013,-0.019
176373,2.162,-0.189,-9.184,-0.003,0.012,-0.019
176476,2.155,-0.194,-9.175,-0.003,0.013,-0.019
176579,2.167,-0.192,-9.172,-0.003,0.013,-0.019
176682,2.155,-0.187,-9.184,-0.003,0.013,-0.019
176785,2.162,-0.184,-9.184,-0.004,0.013,-0.019
176888,2.174,-0.187,-9.184,-0.003,0.013,-0.019
176991,2.155,-0.196,-9.194,-0.003,0.013,-0.019
177094,2.16,-0.194,-9.189,-0.003,0.013,-0.019
177197,2.155,-0.194,-9.191,-0.004,0.013,-0.019
177300,2.145,-0.184,-9.218,-0.004,0.013,-0.02
177403,2.167,-0.194,-9.206,-0.003,0.013,-0.019
177506,2.15,-0.196,-9.182,-0.003,0.013,-0.018
177609,2.152,-0.189,-9.189,-0.003,0.013,-0.019
177712,2.164,-0.204,-9.179,-0.003,0.013,-0.019
177815,2.167,-0.189,-9.189,-0.003,0.013,-0.019
177918,2.164,-0.194,-9.182,-0.003,0.013,-0.019
178021,2.155,-0.201,-9.194,-0.003,0.013,-0.019
178124,2.157,-0.187,-9.17,-0.003,0.013,-0.019
178227,2.164,-0.196,-9.177,-0.003,0.013,-0.019
178330,2.157,-0.189,-9.182,-0.003,0.013,-0.019
178433,2.167,-0.189,-9.196,-0.003,0.013,-0.019
178536,2.16,-0.199,-9.187,-0.003,0.013,-0.018
178639,2.162,-0.199,-9.184,-0.003,0.013,-0.019
178742,2.174,-0.199,-9.182,-0.003,0.013,-0.019
178845,2.162,-0.196,-9.191,-0.003,0.013,-0.019
178948,2.169,-0.192,-9.182,-0.003,0.013,-0.019
179051,2.157,-0.201,-9.182,-0.003,0.013,-0.019
179154,2.162,-0.201,-9.194,-0.003,0.013,-0.019
179257,2.16,-0.196,-9.17,-0.003,0.013,-0.019
179360,2.164,-0.192,-9.189,-0.004,0.013,-0.019
179463,2.167,-0.196,-9.182,-0.003,0.012,-0.018
179566,2.157,-0.201,-9.182,-0.003,0.013,-0.019
179669,2.16,-0.194,-9.172,-0.003,0.013,-0.019
179772,2.164,-0.199,-9.189,-0.003,0.013,-0.019
179875,2.164,-0.199,-9.179,-0.003,0.013,-0.019
179978,2.16,-0.194,-9.184,-0.003,0.013,-0.019
180081,2.162,-0.192,-9.191,-0.003,0.013,-0.019
180184,2.167,-0.18,-9.189,-0.003,0.013,-0.019
180287,2.157,-0.192,-9.184,-0.003,0.013,-0.019
180390,2.164,-0.189,-9.191,-0.003,0.012,-0.019
180493,2.164,-0.204,-9.189,-0.003,0.013,-0.019
180596,2.164,-0.208,-9.201,-0.004,0.013,-0.019
180699,2.162,-0.199,-9.182,-0.003,0.013,-0.019
180802,2.16,-0.204,-9.189,-0.004,0.013,-0.019
180905,2.162,-0.192,-9.196,-0.003,0.013,-0.019
181008,2.155,-0.189,-9.184,-0.003,0.013,-0.018
181111,2.164,-0.199,-9.196,-0.003,0.013,-0.019
181214,2.162,-0.192,-9.182,-0.003,0.013,-0.019
181317,2.155,-0.189,-9.189,-0.003,0.013,-0.019
181420,2.157,-0.189,-9.203,-0.003,0.013,-0.019
181523,2.155,-0.184,-9.163,-0.003,0.013,-0.019
181626,2.164,-0.189,-9.191,-0.004,0.013,-0.019
181729,2.167,-0.201,-9.206,-0.003,0.013,-0.019
181832,2.167,-0.182,-9.187,-0.003,0.013,-0.019
181935,2.16,-0.194,-9.184,-0.003,0.013,-0.019
182038,2.169,-0.187,-9.189,-0.003,0.013,-0.019
182141,2.157,-0.187,-9.191,-0.003,0.013,-0.019
182244,2.172,-0.177,-9.172,-0.003,0.013,-0.019
182347,2.167,-0.201,-9.184,-0.003,0.013,-0.019
182450,2.16,-0.196,-9.189,-0.003,0.012,-0.019
182553,2.157,-0.204,-9.194,-0.003,0.013,-0.019
182656,2.155,-0.194,-9.175,-0.003,0.013,-0.019
182759,2.16,-0.194,-9.194,-0.003,0.013,-0.019
182862,2.162,-0.201,-9.175,-0.003,0.013,-0.019
182965,2.164,-0.192,-9.196,-0.003,0.013,-0.019
183068,2.164,-0.184,-9.179,-0.003,0.013,-0.019
183171,2.162,-0.196,-9.187,-0.003,0.013,-0.019
183274,2.162,-0.194,-9.187,-0.003,0.013,-0.019
183377,2.167,-0.199,-9.189,-0.003,0.013,-0.019
183480,2.16,-0.194,-9.187,-0.003,0.013,-0.019
183583,2.157,-0.187,-9.199,-0.003,0.013,-0.019
183686,2.15,-0.189,-9.179,-0.003,0.013,-0.019
183789,2.16,-0.201,-9.191,-0.003,0.013,-0.019
183892,2.157,-0.189,-9.172,-0.003,0.013,-0.019
183995,2.167,-0.196,-9.184,-0.003,0.013,-0.019
184098,2.172,-0.194,-9.208,-0.003,0.012,-0.019
184201,2.167,-0.189,-9.194,-0.004,0.013,-0.019
184304,2.15,-0.18,-9.182,-0.003,0.013,-0.019
184407,2.164,-0.199,-9.177,-0.003,0.013,-0.019
184510,2.157,-0.196,-9.189,-0.004,0.013,-0.018
184613,2.167,-0.194,-9.184,-0.003,0.013,-0.019
184716,2.169,-0.189,-9.179,-0.003,0.013,-0.019
184819,2.16,-0.194,-9.187,-0.003,0.013,-0.018
184922,2.16,-0.189,-9.189,-0.003,0.013,-0.019
185025,2.162,-0.192,-9.184,-0.003,0.013,-0.019
185128,2.164,-0.194,-9.189,-0.004,0.013,-0.019
185231,2.162,-0.189,-9.172,-0.003,0.013,-0.019
185334,2.162,-0.184,-9.179,-0.003,0.013,-0.018
185437,2.169,-0.187,-9.189,-0.003,0.013,-0.019
185540,2.167,-0.192,-9.184,-0.003,0.013,-0.019
185643,2.157,-0.189,-9.196,-0.003,0.013,-0.019
185746,2.164,-0.192,-9.184,-0.003,0.013,-0.019
185849,2.16,-0.187,-9.189,-0.003,0.013,-0.019
185952,2.155,-0.182,-9.203,-0.003,0.013,-0.019
186055,2.167,-0.192,-9.189,-0.003,0.013,-0.019
186158,2.167,-0.187,-9.179,-0.003,0.013,-0.019
186261,2.16,-0.196,-9.187,-0.003,0.014,-0.019
186364,2.16,-0.196,-9.165,-0.003,0.013,-0.019
186467,2.169,-0.206,-9.194,-0.003,0.013,-0.019
186570,2.167,-0.194,-9.184,-0.003,0.013,-0.019
186673,2.162,-0.199,-9.182,-0.003,0.013,-0.019
186776,2.174,-0.192,-9.189,-0.003,0.013,-0.019
186879,2.164,-0.196,-9.177,-0.003,0.013,-0.019
186982,2.164,-0.196,-9.177,-0.003,0.013,-0.019
187085,2.155,-0.196,-9.184,-0.003,0.013,-0.019
187188,2.16,-0.187,-9.184,-0.003,0.013,-0.018
187291,2.16,-0.194,-9.187,-0.003,0.013,-0.019
187394,2.155,-0.201,-9.182,-0.003,0.013,-0.019
187497,2.164,-0.192,-9.175,-0.003,0.013,-0.019
187600,2.164,-0.189,-9.177,-0.003,0.013,-0.019
187703,2.152,-0.194,-9.177,-0.003,0.013,-0.019
187806,2.162,-0.192,-9.187,-0.003,0.013,-0.019
187909,2.155,-0.196,-9.172,-0.003,0.013,-0.019
188012,2.16,-0.196,-9.199,-0.003,0.013,-0.018
188115,2.162,-0.189,-9.175,-0.003,0.013,-0.019
188218,2.16,-0.187,-9.189,-0.003,0.013,-0.019
188321,2.164,-0.194,-9.191,-0.003,0.013,-0.019
188424,2.157,-0.194,-9.196,-0.003,0.013,-0.019
188527,2.16,-0.187,-9.191,-0.003,0.013,-0.019
188630,2.157,-0.189,-9.179,-0.003,0.013,-0.019
188733,2.172,-0.192,-9.196,-0.003,0.013,-0.019
188836,2.16,-0.196,-9.182,-0.003,0.013,-0.019
188939,2.162,-0.194,-9.187,-0.003,0.013,-0.019
189042,2.167,-0.194,-9.182,-0.003,0.013,-0.019
189145,2.167,-0.192,-9.187,-0.004,0.013,-0.019
189248,2.157,-0.189,-9.184,-0.003,0.013,-0.019
189351,2.15,-0.194,-9.184,-0.003,0.013,-0.018
189454,2.169,-0.206,-9.16,-0.003,0.013,-0.018
189557,2.169,-0.194,-9.184,-0.003,0.013,-0.019
189660,2.148,-0.194,-9.189,-0.003,0.013,-0.019
189763,2.174,-0.192,-9.179,-0.003,0.013,-0.019
189866,2.157,-0.192,-9.182,-0.003,0.013,-0.019
189969,2.164,-0.187,-9.184,-0.003,0.013,-0.019
190072,2.162,-0.194,-9.208,-0.003,0.013,-0.019
190175,2.162,-0.187,-9.184,-0.003,0.013,-0.019
190278,2.162,-0.187,-9.184,-0.003,0.012,-0.019
190381,2.157,-0.184,-9.175,-0.003,0.012,-0.019
190484,2.16,-0.196,-9.16,-0.003,0.013,-0.019
190587,2.16,-0.192,-9.196,-0.004,0.013,-0.019
190690,2.162,-0.192,-9.199,-0.003,0.013,-0.019
190793,2.152,-0.199,-9.184,-0.003,0.013,-0.019
190896,2.162,-0.187,-9.182,-0.003,0.013,-0.019
190999,2.162,-0.204,-9.167,-0.003,0.013,-0.019
191102,2.164,-0.18,-9.187,-0.003,0.013,-0.019
191205,2.167,-0.192,-9.184,-0.003,0.013,-0.019
191308,2.169,-0.196,-9.199,-0.004,0.014,-0.019
191411,2.167,-0.189,-9.184,-0.003,0.013,-0.019
191514,2.162,-0.192,-9.177,-0.003,0.013,-0.019
191617,2.172,-0.201,-9.191,-0.003,0.013,-0.019
191720,2.155,-0.189,-9.196,-0.003,0.013,-0.019
191823,2.155,-0.192,-9.184,-0.003,0.013,-0.019
191926,2.167,-0.189,-9.184,-0.003,0.013,-0.019
192029,2.16,-0.196,-9.187,-0.003,0.013,-0.019
192132,2.16,-0.196,-9.182,-0.004,0.013,-0.019
192235,2.167,-0.194,-9.187,-0.003,0.013,-0.019
192338,2.162,-0.199,-9.175,-0.003,0.013,-0.019
192441,2.164,-0.199,-9.184,-0.003,0.013,-0.019
192544,2.16,-0.192,-9.184,-0.003,0.013,-0.019
192647,2.167,-0.189,-9.182,-0.003,0.013,-0.019
192750,2.164,-0.187,-9.167,-0.003,0.013,-0.019
192853,2.164,-0.194,-9.177,-0.003,0.013,-0.019
192956,2.162,-0.187,-9.182,-0.003,0.013,-0.019
193059,2.157,-0.196,-9.175,-0.003,0.013,-0.019
193162,2.162,-0.194,-9.201,-0.003,0.013,-0.019
193265,2.152,-0.189,-9.189,-0.003,0.013,-0.019
193368,2.16,-0.196,-9.182,-0.003,0.013,-0.019
193471,2.16,-0.196,-9.189,-0.003,0.014,-0.019
193574,2.152,-0.189,-9.182,-0.003,0.013,-0.019
193677,2.164,-0.189,-9.179,-0.003,0.013,-0.019
193780,2.15,-0.199,-9.187,-0.003,0.013,-0.019
193883,2.162,-0.184,-9.184,-0.003,0.013,-0.019
193986,2.169,-0.199,-9.175,-0.003,0.013,-0.019
194089,2.157,-0.196,-9.194,-0.003,0.013,-0.019
194192,2.164,-0.184,-9.175,-0.003,0.013,-0.019
194295,2.162,-0.196,-9.187,-0.003,0.013,-0.019
194398,2.16,-0.192,-9.194,-0.003,0.013,-0.019
194501,2.169,-0.192,-9.196,-0.003,0.013,-0.019
194604,2.155,-0.194,-9.187,-0.003,0.013,-0.019
194707,2.162,-0.196,-9.199,-0.003,0.013,-0.019
194810,2.155,-0.196,-9.189,-0.003,0.013,-0.019
194913,2.167,-0.192,-9.179,-0.003,0.013,-0.019
195016,2.157,-0.196,-9.179,-0.003,0.013,-0.019
195119,2.157,-0.204,-9.191,-0.003,0.012,-0.019
195222,2.162,-0.187,-9.177,-0.003,0.013,-0.019
195325,2.167,-0.194,-9.189,-0.003,0.013,-0.019
195428,2.167,-0.189,-9.199,-0.003,0.013,-0.019
195531,2.176,-0.194,-9.187,-0.003,0.013,-0.019
195634,2.169,-0.192,-9.203,-0.003,0.013,-0.018
195737,2.164,-0.189,-9.177,-0.003,0.013,-0.019
195840,2.162,-0.182,-9.184,-0.003,0.013,-0.019
195943,2.155,-0.194,-9.201,-0.004,0.013,-0.019
196046,2.162,-0.201,-9.196,-0.003,0.013,-0.019
196149,2.16,-0.182,-9.189,-0.003,0.013,-0.019
196252,2.167,-0.187,-9.17,-0.003,0.013,-0.019
196355,2.174,-0.192,-9.194,-0.003,0.013,-0.019
196458,2.181,-0.206,-9.177,-0.003,0.013,-0.019
196561,2.162,-0.201,-9.189,-0.003,0.013,-0.019
196664,2.16,-0.192,-9.179,-0.003,0.013,-0.019
196767,2.172,-0.189,-9.187,-0.003,0.013,-0.019
196870,2.155,-0.194,-9.184,-0.003,0.013,-0.019
196973,2.169,-0.192,-9.187,-0.003,0.013,-0.019
197076,2.176,-0.184,-9.184,-0.004,0.013,-0.019
197179,2.162,-0.199,-9.175,-0.003,0.013,-0.019
197282,2.157,-0.194,-9.199,-0.003,0.014,-0.019
197385,2.152,-0.199,-9.191,-0.003,0.013,-0.019
197488,2.157,-0.204,-9.182,-0.003,0.013,-0.02
197591,2.16,-0.192,-9.194,-0.003,0.013,-0.019
197694,2.162,-0.192,-9.184,-0.003,0.013,-0.019
197797,2.157,-0.189,-9.206,-0.003,0.013,-0.019
197900,2.16,-0.196,-9.177,-0.003,0.013,-0.019
198003,2.157,-0.189,-9.184,-0.003,0.013,-0.019
198106,2.15,-0.194,-9.189,-0.003,0.013,-0.019
198209,2.162,-0.196,-9.189,-0.003,0.013,-0.019
198312,2.148,-0.204,-9.167,-0.003,0.013,-0.019
198415,2.164,-0.196,-9.187,-0.003,0.013,-0.019
198518,2.167,-0.192,-9.184,-0.003,0.013,-0.019
198621,2.164,-0.196,-9.187,-0.003,0.013,-0.019
198724,2.164,-0.199,-9.187,-0.003,0.013,-0.019
198827,2.164,-0.196,-9.187,-0.003,0.013,-0.019
198930,2.16,-0.192,-9.177,-0.003,0.012,-0.019
199033,2.169,-0.189,-9.187,-0.003,0.013,-0.019
199136,2.164,-0.189,-9.191,-0.003,0.013,-0.019
199239,2.169,-0.194,-9.175,-0.003,0.013,-0.019
199342,2.169,-0.192,-9.194,-0.003,0.013,-0.019
199445,2.15,-0.182,-9.184,-0.003,0.013,-0.019
199548,2.164,-0.194,-9.187,-0.003,0.013,-0.019
199651,2.164,-0.189,-9.191,-0.003,0.012,-0.019
199754,2.162,-0.194,-9.177,-0.003,0.013,-0.019
199857,2.162,-0.196,-9.187,-0.003,0.013,-0.019
199960,2.167,-0.201,-9.184,-0.003,0.013,-0.019
200063,2.162,-0.194,-9.196,-0.003,0.013,-0.019
200166,2.16,-0.192,-9.187,-0.003,0.013,-0.019
200269,2.162,-0.199,-9.179,-0.003,0.013,-0.019
200372,2.174,-0.189,-9.179,-0.003,0.013,-0.019
200475,2.164,-0.194,-9.184,-0.003,0.013,-0.019
200578,2.164,-0.192,-9.187,-0.003,0.013,-0.019
200681,2.157,-0.189,-9.189,-0.003,0.013,-0.019
200784,2.16,-0.201,-9.191,-0.003,0.013,-0.019
200887,2.157,-0.199,-9.191,-0.003,0.013,-0.019
200990,2.16,-0.201,-9.179,-0.003,0.013,-0.019
201093,2.155,-0.189,-9.172,-0.003,0.013,-0.019
201196,2.167,-0.192,-9.179,-0.003,0.013,-0.019
201299,2.169,-0.184,-9.177,-0.003,0.012,-0.019
201402,2.157,-0.196,-9.194,-0.003,0.013,-0.018
201505,2.169,-0.194,-9.194,-0.003,0.013,-0.019
201608,2.155,-0.194,-9.187,-0.003,0.013,-0.019
201711,2.164,-0.196,-9.179,-0.003,0.013,-0.019
201814,2.16,-0.184,-9.182,-0.003,0.013,-0.019
201917,2.16,-0.196,-9.184,-0.003,0.013,-0.019
202020,2.162,-0.196,-9.17,-0.003,0.013,-0.019
202123,2.152,-0.192,-9.191,-0.003,0.013,-0.018
202226,2.15,-0.196,-9.179,-0.003,0.012,-0.019
202329,2.155,-0.189,-9.189,-0.003,0.013,-0.018
202432,2.164,-0.196,-9.184,-0.003,0.013,-0.019
202535,2.164,-0.192,-9.187,-0.003,0.013,-0.019
202638,2.164,-0.199,-9.182,-0.003,0.013,-0.019
202741,2.16,-0.187,-9.184,-0.004,0.013,-0.019
202844,2.16,-0.199,-9.194,-0.003,0.013,-0.02
202947,2.16,-0.192,-9.189,-0.003,0.013,-0.019
203050,2.15,-0.194,-9.175,-0.003,0.013,-0.019
203153,2.164,-0.199,-9.184,-0.003,0.013,-0.019
203256,2.164,-0.189,-9.177,-0.003,0.013,-0.019
203359,2.169,-0.192,-9.189,-0.003,0.013,-0.019
203462,2.176,-0.192,-9.182,-0.003,0.013,-0.019
203565,2.172,-0.182,-9.182,-0.004,0.013,-0.019
203668,2.157,-0.199,-9.184,-0.003,0.013,-0.019
203771,2.16,-0.184,-9.182,-0.003,0.013,-0.019
203874,2.155,-0.184,-9.191,-0.003,0.013,-0.019
203977,2.164,-0.189,-9.184,-0.002,0.013,-0.018
204080,2.164,-0.184,-9.177,-0.003,0.013,-0.019
204183,2.155,-0.199,-9.184,-0.003,0.013,-0.019
204286,2.169,-0.192,-9.17,-0.003,0.013,-0.019
204389,2.157,-0.187,-9.187,-0.003,0.013,-0.019
204492,2.167,-0.192,-9.175,-0.003,0.013,-0.019
204595,2.155,-0.189,-9.184,-0.003,0.013,-0.019
204698,2.155,-0.184,-9.191,-0.003,0.013,-0.019
204801,2.164,-0.189,-9.182,-0.003,0.013,-0.019
204904,2.16,-0.192,-9.189,-0.003,0.013,-0.019
205007,2.164,-0.206,-9.184,-0.003,0.012,-0.019
205110,2.164,-0.182,-9.194,-0.003,0.013,-0.019
205213,2.162,-0.189,-9.199,-0.003,0.013,-0.019
205316,2.164,-0.196,-9.201,-0.003,0.012,-0.019
205419,2.152,-0.184,-9.191,-0.003,0.013,-0.019
205522,2.157,-0.187,-9.194,-0.003,0.013,-0.019
205625,2.162,-0.192,-9.187,-0.003,0.013,-0.019
205728,2.16,-0.201,-9.194,-0.003,0.013,-0.019
205831,2.162,-0.194,-9.189,-0.003,0.013,-0.019
205934,2.164,-0.199,-9.194,-0.003,0.013,-0.019
206037,2.157,-0.194,-9.184,-0.003,0.013,-0.019
206140,2.155,-0.196,-9.199,-0.003,0.013,-0.02
206243,2.16,-0.201,-9.167,-0.003,0.013,-0.019
206346,2.162,-0.187,-9.187,-0.003,0.013,-0.019
206449,2.169,-0.187,-9.189,-0.003,0.013,-0.019
206552,2.167,-0.192,-9.184,-0.003,0.013,-0.019
206655,2.16,-0.196,-9.189,-0.003,0.013,-0.019
206758,2.169,-0.211,-9.189,-0.003,0.013,-0.019
206861,2.162,-0.187,-9.182,-0.003,0.013,-0.019
206964,2.162,-0.199,-9.179,-0.002,0.012,-0.019
207067,2.167,-0.189,-9.182,-0.003,0.014,-0.019
207170,2.164,-0.192,-9.201,-0.003,0.013,-0.019
207273,2.162,-0.189,-9.184,-0.003,0.013,-0.019
207376,2.164,-0.196,-9.194,-0.003,0.013,-0.019
207479,2.16,-0.192,-9.191,-0.003,0.013,-0.019
207582,2.162,-0.187,-9.167,-0.003,0.013,-0.019
207685,2.162,-0.187,-9.177,-0.003,0.013,-0.019
207788,2.157,-0.196,-9.182,-0.003,0.013,-0.019
207891,2.162,-0.192,-9.187,-0.003,0.013,-0.019
207994,2.155,-0.201,-9.167,-0.003,0.013,-0.019
208097,2.162,-0.199,-9.17,-0.003,0.013,-0.019
208200,2.155,-0.192,-9.182,-0.004,0.013,-0.019
208303,2.162,-0.199,-9.184,-0.003,0.012,-0.019
208406,2.157,-0.199,-9.182,-0.003,0.013,-0.019
208509,2.152,-0.196,-9.191,-0.003,0.013,-0.019
208612,2.172,-0.199,-9.194,-0.003,0.013,-0.019
208715,2.16,-0.204,-9.191,-0.003,0.013,-0.019
208818,2.162,-0.201,-9.187,-0.003,0.013,-0.019
208921,2.157,-0.192,-9.201,-0.003,0.013,-0.019
209024,2.164,-0.189,-9.177,-0.003,0.013,-0.019
209127,2.164,-0.189,-9.189,-0.003,0.013,-0.019
209230,2.162,-0.187,-9.196,-0.003,0.013,-0.019
209333,2.157,-0.192,-9.184,-0.003,0.013,-0.019
209436,2.155,-0.194,-9.206,-0.003,0.013,-0.019
209539,2.164,-0.192,-9.189,-0.003,0.013,-0.019
209642,2.172,-0.189,-9.179,-0.003,0.013,-0.019
209745,2.167,-0.194,-9.196,-0.003,0.013,-0.019
209848,2.172,-0.192,-9.187,-0.003,0.013,-0.019
209951,2.157,-0.199,-9.179,-0.003,0.013,-0.019
210054,2.164,-0.194,-9.191,-0.003,0.013,-0.019
210157,2.172,-0.184,-9.182,-0.003,0.013,-0.018
210260,2.164,-0.192,-9.184,-0.003,0.013,-0.019
210363,2.16,-0.196,-9.179,-0.003,0.013,-0.019
210466,2.167,-0.199,-9.194,-0.003,0.013,-0.019
210569,2.162,-0.201,-9.187,-0.003,0.013,-0.018
210672,2.157,-0.199,-9.194,-0.003,0.013,-0.019
210775,2.16,-0.189,-9.189,-0.003,0.013,-0.019
210878,2.157,-0.184,-9.194,-0.003,0.013,-0.019
210981,2.162,-0.189,-9.184,-0.003,0.013,-0.019
211084,2.172,-0.194,-9.191,-0.003,0.013,-0.019
211187,2.16,-0.189,-9.179,-0.003,0.013,-0.019
211290,2.162,-0.194,-9.179,-0.003,0.013,-0.018
211393,2.164,-0.192,-9.201,-0.003,0.013,-0.019
211496,2.152,-0.192,-9.175,-0.003,0.013,-0.019
211599,2.157,-0.196,-9.189,-0.003,0.013,-0.019
211702,2.167,-0.194,-9.187,-0.003,0.013,-0.019
211805,2.169,-0.192,-9.172,-0.003,0.013,-0.019
211908,2.157,-0.187,-9.187,-0.003,0.013,-0.019
212011,2.162,-0.196,-9.187,-0.003,0.013,-0.019
212114,2.16,-0.196,-9.191,-0.003,0.013,-0.019
212217,2.164,-0.187,-9.189,-0.003,0.013,-0.019
212320,2.162,-0.189,-9.172,-0.003,0.013,-0.019
212423,2.164,-0.192,-9.194,-0.004,0.013,-0.019
212526,2.162,-0.194,-9.194,-0.002,0.013,-0.019
212629,2.162,-0.194,-9.194,-0.003,0.013,-0.019
212732,2.167,-0.196,-9.189,-0.003,0.013,-0.019
212835,2.169,-0.199,-9.194,-0.003,0.013,-0.019
212938,2.162,-0.201,-9.203,-0.003,0.013,-0.019
213041,2.167,-0.192,-9.179,-0.003,0.013,-0.018
213144,2.16,-0.196,-9.196,-0.003,0.013,-0.019
213247,2.169,-0.194,-9.182,-0.004,0.013,-0.019
213350,2.16,-0.194,-9.196,-0.003,0.013,-0.019
213453,2.164,-0.184,-9.175,-0.003,0.013,-0.019
213556,2.172,-0.189,-9.189,-0.003,0.013,-0.019
213659,2.164,-0.199,-9.194,-0.003,0.013,-0.019
213762,2.148,-0.189,-9.187,-0.003,0.013,-0.019
213865,2.152,-0.189,-9.189,-0.003,0.013,-0.019
213968,2.162,-0.199,-9.189,-0.003,0.013,-0.019
214071,2.164,-0.192,-9.189,-0.003,0.013,-0.019
214174,2.162,-0.196,-9.194,-0.003,0.013,-0.018
214277,2.162,-0.194,-9.189,-0.003,0.013,-0.019
214380,2.155,-0.196,-9.187,-0.003,0.013,-0.019
214483,2.16,-0.187,-9.182,-0.003,0.013,-0.019
214586,2.167,-0.201,-9.184,-0.003,0.013,-0.019
214689,2.16,-0.196,-9.191,-0.003,0.013,-0.019
214792,2.169,-0.196,-9.191,-0.003,0.013,-0.019
214895,2.16,-0.204,-9.196,-0.003,0.013,-0.019
214998,2.172,-0.187,-9.182,-0.003,0.012,-0.019
215101,2.164,-0.199,-9.177,-0.003,0.013,-0.019
215204,2.162,-0.192,-9.182,-0.003,0.013,-0.019
215307,2.16,-0.187,-9.172,-0.003,0.013,-0.019
215410,2.167,-0.196,-9.182,-0.003,0.013,-0.019
215513,2.152,-0.192,-9.189,-0.003,0.013,-0.019
215616,2.162,-0.194,-9.182,-0.003,0.013,-0.018
215719,2.157,-0.189,-9.189,-0.003,0.013,-0.019
215822,2.162,-0.194,-9.182,-0.003,0.013,-0.019
215925,2.16,-0.192,-9.184,-0.003,0.013,-0.019
216028,2.164,-0.187,-9.187,-0.003,0.013,-0.019
216131,2.162,-0.199,-9.191,-0.003,0.013,-0.019
216234,2.164,-0.192,-9.187,-0.003,0.013,-0.019
216337,2.162,-0.199,-9.189,-0.003,0.013,-0.019
216440,2.169,-0.189,-9.187,-0.004,0.013,-0.018
216543,2.16,-0.194,-9.201,-0.003,0.013,-0.019
216646,2.162,-0.196,-9.189,-0.003,0.013,-0.019
216749,2.169,-0.187,-9.189,-0.004,0.013,-0.019
216852,2.16,-0.187,-9.175,-0.003,0.013,-0.019
216955,2.167,-0.187,-9.201,-0.003,0.013,-0.019
217058,2.16,-0.189,-9.189,-0.003,0.013,-0.019
217161,2.164,-0.184,-9.189,-0.003,0.013,-0.019
217264,2.157,-0.199,-9.199,-0.003,0.013,-0.019
217367,2.157,-0.201,-9.172,-0.003,0.013,-0.019
217470,2.155,-0.184,-9.191,-0.003,0.013,-0.019
217573,2.152,-0.189,-9.177,-0.004,0.012,-0.019
217676,2.16,-0.184,-9.187,-0.003,0.013,-0.019
217779,2.157,-0.184,-9.177,-0.003,0.013,-0.019
217882,2.162,-0.192,-9.184,-0.003,0.013,-0.018
217985,2.162,-0.192,-9.196,-0.004,0.013,-0.019
218088,2.169,-0.206,-9.179,-0.004,0.013,-0.019
218191,2.16,-0.194,-9.184,-0.004,0.012,-0.019
218294,2.164,-0.192,-9.194,-0.003,0.013,-0.019
218397,2.16,-0.196,-9.172,-0.003,0.012,-0.019
218500,2.162,-0.196,-9.184,-0.003,0.013,-0.019
218603,2.162,-0.192,-9.196,-0.003,0.012,-0.019
218706,2.152,-0.192,-9.182,-0.003,0.012,-0.019
218809,2.157,-0.192,-9.177,-0.003,0.013,-0.019
218912,2.164,-0.199,-9.196,-0.003,0.013,-0.019
219015,2.167,-0.189,-9.184,-0.003,0.013,-0.019
219118,2.164,-0.184,-9.187,-0.003,0.013,-0.019
219221,2.167,-0.189,-9.179,-0.003,0.013,-0.019
219324,2.162,-0.194,-9.187,-0.003,0.013,-0.019
219427,2.169,-0.187,-9.191,-0.003,0.013,-0.019
219530,2.155,-0.196,-9.189,-0.003,0.013,-0.019
219633,2.162,-0.192,-9.189,-0.003,0.012,-0.019
219736,2.169,-0.189,-9.189,-0.003,0.012,-0.019
219839,2.162,-0.199,-9.179,-0.003,0.013,-0.019
219942,2.167,-0.187,-9.189,-0.003,0.013,-0.019
220045,2.167,-0.194,-9.182,-0.003,0.013,-0.019
220148,2.162,-0.189,-9.187,-0.003,0.013,-0.019
220251,2.157,-0.184,-9.196,-0.003,0.013,-0.019
220354,2.157,-0.201,-9.189,-0.004,0.013,-0.019
220457,2.155,-0.201,-9.194,-0.003,0.013,-0.019
220560,2.169,-0.184,-9.189,-0.003,0.013,-0.02
220663,2.167,-0.194,-9.184,-0.003,0.012,-0.019
220766,2.157,-0.196,-9.191,-0.003,0.013,-0.019
220869,2.152,-0.196,-9.182,-0.003,0.013,-0.019
220972,2.169,-0.189,-9.187,-0.003,0.013,-0.019
221075,2.157,-0.189,-9.184,-0.003,0.013,-0.019
221178,2.152,-0.204,-9.179,-0.003,0.013,-0.019
221281,2.16,-0.199,-9.179,-0.003,0.013,-0.019
221384,2.162,-0.189,-9.189,-0.003,0.013,-0.019
221487,2.162,-0.189,-9.179,-0.003,0.013,-0.019
221590,2.155,-0.194,-9.184,-0.003,0.013,-0.019
221693,2.16,-0.189,-9.196,-0.003,0.013,-0.019
221796,2.155,-0.194,-9.177,-0.003,0.013,-0.019
221899,2.751,-0.237,-9.213,-0.033,-0.354,-0.013
222002,-0.215,-0.029,-9.275,-0.18,-2.797,-0.012
222105,-1.458,0.062,-9.347,-0.025,-0.179,-0.014
222208,-1.36,0.045,-9.345,-0.004,-0.004,-0.018
222311,-1.36,0.048,-9.364,-0.003,0.012,-0.017
222414,-1.35,0.045,-9.361,-0.003,0.015,-0.018
222517,-1.35,0.053,-9.354,-0.003,0.013,-0.019
222620,-1.353,0.048,-9.357,-0.003,0.012,-0.018
222723,-1.355,0.048,-9.364,-0.003,0.013,-0.018
222826,-1.353,0.053,-9.357,-0.003,0.013,-0.018
222929,-1.355,0.05,-9.361,-0.003,0.013,-0.018
223032,-1.362,0.041,-9.369,-0.003,0.013,-0.019
223135,-1.358,0.053,-9.364,-0.003,0.013,-0.018
223238,-1.358,0.045,-9.357,-0.003,0.013,-0.018
223341,-1.353,0.048,-9.352,-0.003,0.013,-0.018
223444,-1.36,0.038,-9.354,-0.003,0.013,-0.018
223547,-1.355,0.05,-9.373,-0.003,0.013,-0.018
223650,-1.348,0.055,-9.347,-0.003,0.013,-0.018
223753,-1.36,0.043,-9.354,-0.003,0.012,-0.018
223856,-1.35,0.05,-9.364,-0.003,0.013,-0.018
223959,-1.353,0.048,-9.357,-0.003,0.013,-0.018
224062,-1.343,0.038,-9.359,-0.004,0.013,-0.018
224165,-1.362,0.05,-9.359,-0.003,0.013,-0.018
224268,-1.355,0.045,-9.369,-0.003,0.013,-0.018
224371,-1.362,0.048,-9.359,-0.003,0.013,-0.018
224474,-0.417,-0.014,-9.184,0.194,2.933,-0.034
224577,2.306,-0.206,-9.222,0.044,0.67,-0.025
224680,2.219,-0.194,-9.167,-0.001,0.06,-0.019
224783,2.224,-0.192,-9.17,-0.003,0.017,-0.019
224886,2.212,-0.201,-9.17,-0.003,0.013,-0.019
224989,2.227,-0.192,-9.172,-0.003,0.013,-0.019
225092,2.236,-0.201,-9.182,-0.003,0.013,-0.019
225195,2.229,-0.194,-9.175,-0.003,0.013,-0.019
225298,2.217,-0.194,-9.158,-0.003,0.013,-0.019
225401,2.207,-0.196,-9.177,-0.003,0.013,-0.019
225504,2.207,-0.206,-9.17,-0.003,0.013,-0.019
225607,2.227,-0.199,-9.167,-0.003,0.013,-0.019
225710,2.231,-0.196,-9.177,-0.003,0.013,-0.019
225813,2.229,-0.208,-9.17,-0.003,0.013,-0.019
225916,2.224,-0.199,-9.163,-0.003,0.013,-0.019
226019,2.217,-0.199,-9.187,-0.003,0.013,-0.019
226122,2.222,-0.194,-9.172,-0.003,0.013,-0.019
226225,2.212,-0.194,-9.17,-0.003,0.013,-0.019
226328,2.227,-0.199,-9.177,-0.004,0.013,-0.019
226431,2.219,-0.194,-9.17,-0.003,0.013,-0.019
226534,2.229,-0.182,-9.172,-0.003,0.013,-0.019
226637,2.219,-0.199,-9.175,-0.003,0.013,-0.019
226740,2.224,-0.194,-9.172,-0.003,0.013,-0.018
226843,2.222,-0.199,-9.172,-0.003,0.013,-0.019
226946,2.222,-0.189,-9.172,-0.003,0.013,-0.019
227049,2.219,-0.199,-9.167,-0.003,0.013,-0.02
227152,2.219,-0.192,-9.187,-0.003,0.013,-0.019
227255,2.222,-0.189,-9.163,-0.003,0.013,-0.019
227358,2.212,-0.192,-9.187,-0.003,0.012,-0.019
227461,2.224,-0.199,-9.172,-0.003,0.013,-0.019
227564,2.215,-0.199,-9.167,-0.003,0.013,-0.019
227667,2.231,-0.196,-9.153,-0.003,0.012,-0.019
227770,2.215,-0.192,-9.17,-0.003,0.012,-0.019
227873,2.239,-0.199,-9.172,-0.003,0.013,-0.019
227976,2.222,-0.201,-9.172,-0.003,0.013,-0.019
228079,2.222,-0.189,-9.155,-0.003,0.013,-0.019
228182,2.222,-0.192,-9.165,-0.003,0.013,-0.019
228285,2.222,-0.189,-9.17,-0.003,0.013,-0.019
228388,2.224,-0.194,-9.172,-0.003,0.012,-0.019
228491,2.231,-0.201,-9.172,-0.003,0.013,-0.019
228594,2.227,-0.192,-9.177,-0.003,0.013,-0.019
228697,2.217,-0.192,-9.17,-0.004,0.013,-0.019
228800,2.224,-0.187,-9.182,-0.003,0.013,-0.019
228903,2.224,-0.199,-9.155,-0.003,0.013,-0.019
229006,2.229,-0.196,-9.155,-0.004,0.013,-0.019
229109,2.21,-0.192,-9.175,-0.003,0.013,-0.019
229212,2.215,-0.196,-9.17,-0.003,0.013,-0.019
229315,2.219,-0.187,-9.17,-0.002,0.013,-0.019
229418,2.224,-0.189,-9.16,-0.003,0.012,-0.019
229521,2.217,-0.194,-9.177,-0.003,0.013,-0.019
229624,2.215,-0.189,-9.167,-0.003,0.013,-0.019
229727,2.212,-0.192,-9.165,-0.003,0.013,-0.019
229830,2.224,-0.201,-9.177,-0.003,0.013,-0.019
229933,2.224,-0.192,-9.182,-0.003,0.013,-0.019
230036,2.227,-0.201,-9.16,-0.003,0.013,-0.019
230139,2.219,-0.192,-9.165,-0.003,0.013,-0.019
230242,2.217,-0.187,-9.167,-0.003,0.013,-0.019
230345,2.217,-0.196,-9.175,-0.003,0.013,-0.019
230448,2.212,-0.196,-9.165,-0.003,0.013,-0.019
230551,2.229,-0.199,-9.165,-0.003,0.013,-0.02
230654,2.212,-0.196,-9.172,-0.003,0.013,-0.019
230757,2.227,-0.201,-9.177,-0.004,0.013,-0.019
230860,2.222,-0.187,-9.165,-0.003,0.013,-0.019
230963,2.217,-0.192,-9.17,-0.003,0.013,-0.019
231066,2.21,-0.204,-9.163,-0.003,0.013,-0.019
231169,2.224,-0.199,-9.175,-0.003,0.013,-0.019
231272,2.222,-0.184,-9.177,-0.003,0.013,-0.019
231375,2.217,-0.187,-9.177,-0.003,0.013,-0.02
231478,2.222,-0.196,-9.177,-0.003,0.013,-0.019
231581,2.222,-0.194,-9.16,-0.003,0.013,-0.019
231684,2.219,-0.187,-9.153,-0.003,0.012,-0.019
231787,2.231,-0.196,-9.177,-0.003,0.012,-0.019
231890,2.217,-0.184,-9.172,-0.003,0.013,-0.019
231993,2.222,-0.189,-9.187,-0.003,0.013,-0.019
232096,2.224,-0.192,-9.163,-0.003,0.013,-0.019
232199,2.217,-0.194,-9.177,-0.003,0.013,-0.019
232302,2.217,-0.204,-9.16,-0.003,0.013,-0.019
232405,2.224,-0.192,-9.165,-0.003,0.013,-0.019
232508,2.227,-0.192,-9.165,-0.003,0.012,-0.019
232611,2.227,-0.184,-9.17,-0.003,0.013,-0.019
232714,2.217,-0.199,-9.158,-0.003,0.013,-0.019
232817,2.222,-0.199,-9.177,-0.003,0.013,-0.019
232920,2.224,-0.201,-9.165,-0.003,0.013,-0.019
233023,2.219,-0.199,-9.184,-0.003,0.013,-0.019
233126,2.224,-0.192,-9.179,-0.003,0.013,-0.019
233229,2.219,-0.206,-9.184,-0.003,0.013,-0.019
233332,2.224,-0.194,-9.172,-0.003,0.013,-0.019
233435,2.224,-0.204,-9.17,-0.003,0.013,-0.019
233538,2.215,-0.196,-9.172,-0.003,0.013,-0.019
233641,2.224,-0.194,-9.163,-0.003,0.013,-0.019
233744,2.219,-0.189,-9.177,-0.003,0.013,-0.019
233847,2.227,-0.192,-9.17,-0.003,0.013,-0.019
233950,2.224,-0.196,-9.172,-0.003,0.013,-0.019
234053,2.217,-0.196,-9.182,-0.003,0.013,-0.019
234156,2.222,-0.184,-9.17,-0.003,0.013,-0.019
234259,2.229,-0.192,-9.184,-0.003,0.013,-0.019
234362,2.219,-0.189,-9.163,-0.003,0.013,-0.019
234465,2.236,-0.194,-9.17,-0.003,0.013,-0.019
234568,2.222,-0.204,-9.172,-0.003,0.012,-0.019
234671,2.224,-0.187,-9.175,-0.003,0.012,-0.019
234774,2.219,-0.192,-9.179,-0.003,0.013,-0.019
234877,2.219,-0.194,-9.167,-0.004,0.013,-0.018
234980,2.227,-0.196,-9.163,-0.003,0.013,-0.019
235083,2.231,-0.192,-9.167,-0.003,0.013,-0.018
235186,2.222,-0.192,-9.175,-0.003,0.013,-0.019
235289,2.217,-0.189,-9.17,-0.003,0.013,-0.019
235392,2.224,-0.194,-9.165,-0.003,0.013,-0.019
235495,2.222,-0.204,-9.179,-0.003,0.013,-0.019
235598,2.224,-0.196,-9.172,-0.003,0.013,-0.02
235701,2.234,-0.199,-9.17,-0.003,0.013,-0.019
235804,2.215,-0.189,-9.165,-0.003,0.013,-0.019
235907,2.217,-0.194,-9.182,-0.003,0.013,-0.019
236010,2.229,-0.194,-9.172,-0.003,0.013,-0.019
236113,2.219,-0.192,-9.182,-0.003,0.012,-0.019
236216,2.227,-0.204,-9.158,-0.003,0.013,-0.019
236319,2.229,-0.184,-9.165,-0.003,0.013,-0.019
236422,2.222,-0.189,-9.175,-0.003,0.013,-0.019
236525,2.217,-0.192,-9.163,-0.003,0.012,-0.019
236628,2.234,-0.201,-9.167,-0.003,0.013,-0.019
236731,2.227,-0.201,-9.172,-0.003,0.013,-0.019
236834,2.222,-0.194,-9.172,-0.003,0.012,-0.019
236937,2.217,-0.196,-9.187,-0.003,0.013,-0.019
237040,2.215,-0.194,-9.17,-0.004,0.013,-0.019
237143,2.231,-0.189,-9.175,-0.003,0.013,-0.019
237246,2.222,-0.192,-9.165,-0.003,0.013,-0.019
237349,2.222,-0.199,-9.167,-0.004,0.013,-0.019
237452,2.219,-0.206,-9.17,-0.003,0.013,-0.019
237555,2.217,-0.201,-9.163,-0.003,0.013,-0.019
237658,2.219,-0.206,-9.165,-0.003,0.013,-0.019
237761,2.219,-0.196,-9.165,-0.003,0.013,-0.019
237864,2.215,-0.201,-9.182,-0.003,0.013,-0.019
237967,2.222,-0.192,-9.177,-0.003,0.013,-0.019
238070,2.219,-0.192,-9.16,-0.003,0.013,-0.019
238173,2.215,-0.189,-9.16,-0.003,0.013,-0.019
238276,2.217,-0.189,-9.179,-0.003,0.013,-0.019
238379,2.227,-0.196,-9.175,-0.003,0.013,-0.019
238482,2.217,-0.192,-9.148,-0.003,0.013,-0.019
238585,2.227,-0.192,-9.179,-0.003,0.013,-0.019
238688,2.219,-0.199,-9.189,-0.003,0.013,-0.019
238791,2.227,-0.196,-9.167,-0.004,0.013,-0.019
238894,2.231,-0.196,-9.167,-0.003,0.013,-0.019
238997,2.217,-0.204,-9.182,-0.003,0.013,-0.019
239100,2.231,-0.192,-9.175,-0.004,0.013,-0.02
239203,2.217,-0.189,-9.172,-0.003,0.013,-0.018
239306,2.219,-0.184,-9.179,-0.003,0.013,-0.019
239409,2.231,-0.194,-9.172,-0.003,0.012,-0.019
239512,2.222,-0.199,-9.163,-0.003,0.013,-0.019
239615,2.219,-0.199,-9.167,-0.003,0.013,-0.019
239718,2.215,-0.196,-9.177,-0.003,0.013,-0.019
239821,2.224,-0.204,-9.16,-0.003,0.013,-0.019
239924,2.224,-0.196,-9.158,-0.003,0.013,-0.019
240027,2.224,-0.189,-9.167,-0.003,0.013,-0.019
240130,2.217,-0.199,-9.187,-0.003,0.013,-0.019
240233,2.229,-0.196,-9.165,-0.003,0.013,-0.019
240336,2.219,-0.192,-9.175,-0.003,0.013,-0.018
240439,2.215,-0.201,-9.177,-0.003,0.013,-0.018
240542,2.231,-0.192,-9.187,-0.003,0.013,-0.019
240645,2.222,-0.199,-9.167,-0.003,0.013,-0.019
240748,2.224,-0.192,-9.17,-0.003,0.013,-0.019
240851,2.222,-0.182,-9.177,-0.003,0.013,-0.019
240954,2.215,-0.199,-9.172,-0.003,0.013,-0.019
241057,2.231,-0.199,-9.158,-0.003,0.013,-0.019
241160,2.229,-0.189,-9.172,-0.003,0.013,-0.019
241263,2.222,-0.189,-9.177,-0.003,0.012,-0.019
241366,2.207,-0.184,-9.165,-0.003,0.012,-0.019
241469,2.21,-0.204,-9.182,-0.003,0.012,-0.019
241572,2.217,-0.208,-9.167,-0.003,0.013,-0.019
241675,2.217,-0.194,-9.179,-0.003,0.013,-0.019
241778,2.224,-0.194,-9.163,-0.004,0.013,-0.019
241881,2.219,-0.192,-9.172,-0.003,0.012,-0.019
241984,2.224,-0.196,-9.17,-0.003,0.013,-0.019
242087,2.234,-0.192,-9.165,-0.003,0.012,-0.019
242190,2.234,-0.201,-9.165,-0.004,0.013,-0.019
242293,2.217,-0.175,-9.177,-0.003,0.013,-0.019
242396,2.229,-0.194,-9.179,-0.003,0.013,-0.019
242499,2.229,-0.187,-9.177,-0.003,0.013,-0.019
242602,2.217,-0.192,-9.184,-0.003,0.013,-0.019
242705,2.219,-0.187,-9.182,-0.003,0.013,-0.019
242808,2.217,-0.187,-9.167,-0.003,0.013,-0.019
242911,2.212,-0.196,-9.175,-0.003,0.013,-0.019
243014,2.222,-0.199,-9.153,-0.003,0.013,-0.019
243117,2.229,-0.192,-9.175,-0.004,0.013,-0.019
243220,2.224,-0.196,-9.163,-0.003,0.013,-0.019
243323,2.224,-0.194,-9.17,-0.003,0.013,-0.018
243426,2.219,-0.184,-9.175,-0.003,0.013,-0.019
243529,2.224,-0.194,-9.182,-0.003,0.013,-0.018
243632,2.219,-0.189,-9.187,-0.004,0.013,-0.019
243735,2.215,-0.204,-9.167,-0.003,0.013,-0.019
243838,2.231,-0.199,-9.17,-0.003,0.013,-0.019
243941,2.224,-0.201,-9.163,-0.003,0.013,-0.019
244044,2.222,-0.194,-9.167,-0.003,0.013,-0.019
244147,2.224,-0.192,-9.184,-0.003,0.013,-0.019
244250,2.219,-0.189,-9.189,-0.003,0.013,-0.019
244353,2.219,-0.189,-9.16,-0.003,0.013,-0.019
244456,2.219,-0.204,-9.165,-0.003,0.013,-0.019
244559,2.217,-0.199,-9.17,-0.003,0.012,-0.019
244662,2.231,-0.196,-9.158,-0.003,0.013,-0.019
244765,2.234,-0.187,-9.179,-0.003,0.013,-0.019
244868,2.224,-0.196,-9.17,-0.003,0.013,-0.019
244971,2.227,-0.192,-9.155,-0.003,0.012,-0.019
245074,2.222,-0.192,-9.165,-0.003,0.013,-0.019
245177,2.224,-0.201,-9.16,-0.003,0.013,-0.019
245280,2.215,-0.196,-9.165,-0.004,0.013,-0.019
245383,2.217,-0.204,-9.165,-0.003,0.013,-0.019
245486,2.227,-0.199,-9.172,-0.003,0.013,-0.019
245589,2.224,-0.201,-9.151,-0.003,0.012,-0.019
245692,2.231,-0.196,-9.177,-0.003,0.013,-0.019
245795,2.219,-0.189,-9.184,-0.003,0.013,-0.019
245898,2.227,-0.199,-9.17,-0.003,0.013,-0.019
246001,2.224,-0.204,-9.172,-0.003,0.013,-0.019
246104,2.222,-0.189,-9.163,-0.003,0.013,-0.019
246207,2.227,-0.196,-9.165,-0.003,0.013,-0.019
246310,2.229,-0.194,-9.165,-0.004,0.013,-0.02
246413,2.224,-0.196,-9.177,-0.003,0.013,-0.019
246516,2.227,-0.201,-9.163,-0.003,0.013,-0.019
246619,2.219,-0.201,-9.167,-0.003,0.013,-0.019
246722,2.215,-0.199,-9.165,-0.003,0.013,-0.019
246825,2.219,-0.196,-9.17,-0.003,0.013,-0.02
246928,2.219,-0.211,-9.167,-0.003,0.013,-0.019
247031,2.217,-0.189,-9.17,-0.003,0.013,-0.019
247134,2.219,-0.196,-9.172,-0.003,0.013,-0.019
247237,2.215,-0.196,-9.175,-0.003,0.013,-0.019
247340,2.234,-0.194,-9.177,-0.003,0.013,-0.018
247443,2.217,-0.199,-9.182,-0.003,0.013,-0.019
247546,2.219,-0.182,-9.163,-0.003,0.013,-0.018
247649,2.231,-0.194,-9.175,-0.003,0.013,-0.019
247752,2.229,-0.187,-9.165,-0.003,0.013,-0.019
247855,2.212,-0.189,-9.175,-0.003,0.013,-0.019
247958,2.217,-0.194,-9.16,-0.003,0.013,-0.019
248061,2.222,-0.196,-9.182,-0.003,0.013,-0.019
248164,2.229,-0.194,-9.179,-0.003,0.012,-0.019
248267,2.219,-0.194,-9.17,-0.003,0.012,-0.019
248370,2.224,-0.199,-9.182,-0.003,0.013,-0.019
248473,2.222,-0.184,-9.153,-0.003,0.013,-0.019
248576,2.215,-0.199,-9.165,-0.003,0.013,-0.019
248679,2.219,-0.199,-9.167,-0.003,0.013,-0.019
248782,2.222,-0.204,-9.177,-0.004,0.013,-0.019
248885,2.215,-0.201,-9.175,-0.003,0.013,-0.019
248988,2.219,-0.201,-9.187,-0.003,0.012,-0.019
249091,2.217,-0.199,-9.172,-0.003,0.012,-0.019
249194,2.227,-0.196,-9.179,-0.003,0.013,-0.019
249297,2.227,-0.189,-9.175,-0.003,0.013,-0.019
249400,2.229,-0.199,-9.172,-0.003,0.013,-0.019
249503,2.234,-0.192,-9.177,-0.003,0.013,-0.019
249606,2.219,-0.196,-9.16,-0.003,0.013,-0.019
249709,2.217,-0.196,-9.179,-0.003,0.013,-0.019
249812,2.215,-0.194,-9.17,-0.003,0.013,-0.019
249915,2.217,-0.199,-9.172,-0.003,0.012,-0.019
250018,2.224,-0.194,-9.175,-0.003,0.013,-0.019
250121,2.227,-0.194,-9.17,-0.003,0.012,-0.019
250224,2.222,-0.201,-9.175,-0.003,0.013,-0.019
250327,2.217,-0.204,-9.17,-0.003,0.013,-0.019
250430,2.219,-0.196,-9.187,-0.003,0.013,-0.019
250533,2.219,-0.199,-9.17,-0.003,0.013,-0.019
250636,2.229,-0.192,-9.165,-0.003,0.013,-0.019
250739,2.222,-0.189,-9.172,-0.004,0.013,-0.019
250842,2.234,-0.194,-9.172,-0.003,0.013,-0.019
250945,2.224,-0.196,-9.158,-0.003,0.013,-0.019
251048,2.224,-0.204,-9.177,-0.003,0.013,-0.019
251151,2.219,-0.196,-9.165,-0.003,0.013,-0.019
251254,2.222,-0.187,-9.167,-0.003,0.012,-0.019
251357,2.219,-0.199,-9.167,-0.003,0.013,-0.019
251460,2.217,-0.196,-9.165,-0.003,0.013,-0.019
251563,2.227,-0.192,-9.167,-0.003,0.013,-0.02
251666,2.222,-0.199,-9.189,-0.003,0.013,-0.019
251769,2.227,-0.189,-9.182,-0.003,0.013,-0.019
251872,2.219,-0.201,-9.165,-0.003,0.013,-0.019
251975,2.217,-0.199,-9.165,-0.004,0.013,-0.019
252078,2.227,-0.187,-9.182,-0.003,0.013,-0.019
252181,2.212,-0.199,-9.184,-0.003,0.013,-0.019
252284,2.229,-0.194,-9.182,-0.003,0.013,-0.019
252387,2.222,-0.201,-9.175,-0.004,0.013,-0.019
252490,2.215,-0.199,-9.167,-0.003,0.013,-0.019
252593,2.227,-0.194,-9.17,-0.003,0.013,-0.019
252696,2.224,-0.192,-9.17,-0.003,0.013,-0.019
252799,2.229,-0.194,-9.16,-0.003,0.013,-0.019
252902,2.21,-0.192,-9.175,-0.003,0.013,-0.018
253005,2.224,-0.196,-9.177,-0.003,0.013,-0.019
253108,2.222,-0.194,-9.16,-0.003,0.013,-0.019
253211,2.224,-0.194,-9.165,-0.004,0.013,-0.019
253314,2.222,-0.199,-9.177,-0.003,0.012,-0.019
253417,2.222,-0.189,-9.16,-0.003,0.013,-0.019
253520,2.217,-0.206,-9.17,-0.003,0.013,-0.019
253623,2.222,-0.192,-9.165,-0.003,0.013,-0.019
253726,2.229,-0.189,-9.163,-0.004,0.013,-0.019
253829,2.227,-0.192,-9.172,-0.003,0.012,-0.019
253932,2.217,-0.192,-9.17,-0.003,0.013,-0.019
254035,2.215,-0.201,-9.179,-0.003,0.013,-0.019
254138,2.224,-0.201,-9.191,-0.003,0.013,-0.019
254241,2.224,-0.196,-9.16,-0.003,0.013,-0.019
254344,2.219,-0.194,-9.175,-0.003,0.013,-0.019
254447,2.222,-0.182,-9.182,-0.003,0.013,-0.019
254550,2.219,-0.187,-9.165,-0.003,0.013,-0.019
254653,2.222,-0.192,-9.17,-0.003,0.012,-0.019
254756,2.222,-0.204,-9.172,-0.003,0.013,-0.019
254859,2.227,-0.189,-9.177,-0.003,0.013,-0.019
254962,2.234,-0.192,-9.16,-0.004,0.013,-0.019
255065,2.222,-0.204,-9.153,-0.003,0.013,-0.019
255168,2.227,-0.194,-9.17,-0.003,0.013,-0.019
255271,2.217,-0.192,-9.172,-0.003,0.013,-0.019
255374,2.224,-0.189,-9.167,-0.003,0.013,-0.019
255477,2.219,-0.189,-9.175,-0.003,0.013,-0.019
255580,2.222,-0.192,-9.182,-0.003,0.013,-0.019
255683,2.217,-0.194,-9.17,-0.003,0.013,-0.019
255786,2.215,-0.199,-9.184,-0.003,0.013,-0.02
255889,2.219,-0.192,-9.165,-0.003,0.013,-0.019
255992,2.229,-0.194,-9.158,-0.003,0.013,-0.019
256095,2.231,-0.192,-9.17,-0.003,0.013,-0.019
256198,2.229,-0.199,-9.17,-0.003,0.013,-0.019
256301,2.229,-0.189,-9.165,-0.003,0.013,-0.019
256404,2.231,-0.187,-9.163,-0.003,0.012,-0.019
256507,2.222,-0.196,-9.179,-0.003,0.012,-0.019
256610,2.224,-0.189,-9.17,-0.004,0.013,-0.019
256713,2.229,-0.194,-9.165,-0.003,0.013,-0.019
256816,2.217,-0.204,-9.17,-0.003,0.013,-0.019
256919,2.236,-0.189,-9.16,-0.003,0.013,-0.019
257022,2.222,-0.196,-9.177,-0.003,0.013,-0.019
257125,2.222,-0.201,-9.187,-0.003,0.013,-0.019
257228,2.227,-0.204,-9.177,-0.003,0.013,-0.019
257331,2.229,-0.194,-9.184,-0.003,0.013,-0.019
257434,2.229,-0.196,-9.163,-0.003,0.013,-0.019
257537,2.222,-0.194,-9.172,-0.003,0.013,-0.019
257640,2.222,-0.187,-9.172,-0.003,0.013,-0.019
257743,2.222,-0.194,-9.16,-0.003,0.013,-0.019
257846,2.224,-0.194,-9.177,-0.003,0.013,-0.019
257949,2.236,-0.204,-9.182,-0.003,0.013,-0.019
258052,2.21,-0.199,-9.17,-0.003,0.013,-0.019
258155,2.217,-0.192,-9.165,-0.003,0.013,-0.019
258258,2.224,-0.196,-9.177,-0.003,0.013,-0.019
258361,2.231,-0.194,-9.182,-0.003,0.013,-0.019
258464,2.224,-0.194,-9.172,-0.003,0.013,-0.019
258567,2.224,-0.201,-9.165,-0.003,0.013,-0.019
258670,2.215,-0.187,-9.172,-0.003,0.013,-0.019
258773,2.222,-0.194,-9.172,-0.003,0.013,-0.019
258876,2.222,-0.196,-9.17,-0.003,0.013,-0.019
258979,2.231,-0.196,-9.179,-0.003,0.013,-0.019
259082,2.222,-0.187,-9.17,-0.003,0.013,-0.019
259185,2.224,-0.196,-9.179,-0.003,0.013,-0.019
259288,2.227,-0.189,-9.163,-0.003,0.013,-0.019
259391,2.207,-0.194,-9.182,-0.003,0.013,-0.019
259494,2.212,-0.189,-9.165,-0.003,0.013,-0.019
259597,2.229,-0.201,-9.158,-0.003,0.013,-0.019
259700,2.215,-0.184,-9.165,-0.003,0.013,-0.019
259803,2.224,-0.206,-9.163,-0.003,0.013,-0.019
259906,2.234,-0.204,-9.175,-0.003,0.013,-0.019
260009,2.227,-0.199,-9.17,-0.003,0.013,-0.019
260112,2.224,-0.201,-9.177,-0.003,0.013,-0.018
260215,2.229,-0.194,-9.182,-0.003,0.013,-0.019
260318,2.231,-0.199,-9.17,-0.003,0.013,-0.019
260421,2.224,-0.204,-9.165,-0.003,0.013,-0.019
260524,2.217,-0.194,-9.177,-0.003,0.013,-0.019
260627,2.215,-0.199,-9.151,-0.003,0.013,-0.019
260730,2.222,-0.199,-9.182,-0.004,0.013,-0.019
260833,2.224,-0.199,-9.177,-0.003,0.014,-0.019
260936,2.234,-0.199,-9.17,-0.003,0.013,-0.019
261039,2.231,-0.201,-9.177,-0.003,0.013,-0.018
261142,2.227,-0.194,-9.179,-0.003,0.013,-0.019
261245,2.224,-0.192,-9.165,-0.003,0.013,-0.019
261348,2.219,-0.189,-9.167,-0.003,0.013,-0.019
261451,2.229,-0.199,-9.153,-0.003,0.013,-0.019
261554,2.231,-0.199,-9.179,-0.004,0.013,-0.019
261657,2.212,-0.199,-9.179,-0.003,0.013,-0.018
261760,2.227,-0.196,-9.182,-0.003,0.013,-0.019
261863,2.219,-0.189,-9.177,-0.003,0.013,-0.019
261966,2.222,-0.196,-9.191,-0.003,0.013,-0.019
262069,2.229,-0.201,-9.175,-0.003,0.013,-0.019
262172,2.224,-0.196,-9.17,-0.003,0.013,-0.019
262275,2.222,-0.192,-9.165,-0.003,0.013,-0.019
262378,2.219,-0.192,-9.191,-0.003,0.013,-0.019
262481,2.215,-0.201,-9.16,-0.003,0.013,-0.019
262584,2.227,-0.204,-9.165,-0.003,0.013,-0.019
262687,2.219,-0.187,-9.158,-0.003,0.013,-0.019
262790,2.222,-0.192,-9.189,-0.003,0.013,-0.019
262893,2.219,-0.189,-9.179,-0.003,0.013,-0.019
262996,2.227,-0.194,-9.16,-0.003,0.013,-0.019
263099,2.219,-0.194,-9.148,-0.003,0.012,-0.019
263202,2.219,-0.196,-9.172,-0.003,0.013,-0.019
263305,2.222,-0.196,-9.196,-0.003,0.013,-0.019
263408,2.217,-0.196,-9.167,-0.003,0.013,-0.019
263511,2.222,-0.196,-9.179,-0.003,0.013,-0.019
263614,2.222,-0.204,-9.167,-0.003,0.013,-0.019
263717,2.229,-0.194,-9.187,-0.003,0.013,-0.019
263820,2.227,-0.192,-9.165,-0.003,0.013,-0.019
263923,2.219,-0.194,-9.177,-0.003,0.013,-0.019
264026,2.231,-0.184,-9.17,-0.003,0.012,-0.019
264129,2.229,-0.201,-9.17,-0.003,0.013,-0.019
264232,2.224,-0.199,-9.158,-0.003,0.013,-0.018
264335,2.219,-0.196,-9.172,-0.003,0.012,-0.019
264438,2.224,-0.192,-9.172,-0.003,0.013,-0.02
264541,2.224,-0.187,-9.163,-0.003,0.013,-0.018
264644,2.227,-0.194,-9.172,-0.003,0.013,-0.019
264747,2.222,-0.194,-9.189,-0.003,0.013,-0.019
264850,2.227,-0.199,-9.182,-0.003,0.013,-0.019
264953,2.224,-0.189,-9.182,-0.003,0.013,-0.019
265056,2.227,-0.201,-9.163,-0.003,0.013,-0.019
265159,2.222,-0.194,-9.172,-0.003,0.013,-0.019
265262,2.219,-0.192,-9.17,-0.003,0.013,-0.019
265365,2.224,-0.187,-9.165,-0.003,0.013,-0.019
265468,2.227,-0.199,-9.165,-0.003,0.013,-0.02
265571,2.21,-0.192,-9.17,-0.003,0.013,-0.019
265674,2.224,-0.199,-9.177,-0.003,0.013,-0.019
265777,2.212,-0.187,-9.179,-0.003,0.013,-0.019
265880,2.217,-0.201,-9.167,-0.003,0.013,-0.019
265983,2.222,-0.199,-9.167,-0.003,0.013,-0.019
266086,2.219,-0.192,-9.167,-0.003,0.013,-0.019
266189,2.219,-0.201,-9.177,-0.003,0.013,-0.019
266292,2.21,-0.196,-9.182,-0.003,0.013,-0.019
266395,2.215,-0.192,-9.179,-0.003,0.013,-0.019
266498,2.215,-0.206,-9.172,-0.003,0.013,-0.019
266601,2.21,-0.199,-9.189,-0.003,0.013,-0.018
266704,2.212,-0.199,-9.167,-0.003,0.013,-0.019
266807,2.229,-0.201,-9.17,-0.003,0.013,-0.019
266910,2.227,-0.201,-9.165,-0.003,0.013,-0.018
267013,2.229,-0.199,-9.17,-0.003,0.013,-0.019
267116,2.234,-0.199,-9.177,-0.003,0.013,-0.019
