time (ms),acceleration x,acceleration y,acceleration z,gyro x,gyro y,gyro z
656,-0.596,-0.148,-9.428,-0.004,0.012,-0.005
759,-0.594,-0.158,-9.428,-0.004,0.011,-0.006
862,-0.594,-0.158,-9.419,-0.003,0.012,-0.006
965,-0.591,-0.148,-9.438,-0.005,0.011,-0.006
1068,-0.591,-0.163,-9.416,-0.004,0.012,-0.006
1171,-0.603,-0.158,-9.426,-0.004,0.011,-0.006
1274,-0.599,-0.158,-9.438,-0.004,0.012,-0.005
1377,-0.589,-0.16,-9.426,-0.004,0.012,-0.006
1480,-0.591,-0.141,-9.44,-0.004,0.011,-0.006
1583,-0.596,-0.158,-9.428,-0.004,0.012,-0.006
1686,-0.594,-0.16,-9.424,-0.004,0.011,-0.005
1789,-0.594,-0.151,-9.428,-0.004,0.011,-0.006
1892,-0.608,-0.156,-9.438,-0.004,0.012,-0.006
1995,-0.599,-0.156,-9.443,-0.004,0.011,-0.006
2098,-0.603,-0.151,-9.424,-0.004,0.011,-0.006
2201,-0.587,-0.16,-9.448,-0.005,0.011,-0.006
2304,-0.601,-0.148,-9.428,-0.005,0.011,-0.006
2407,-0.599,-0.156,-9.438,-0.004,0.011,-0.006
2510,-0.599,-0.156,-9.44,-0.004,0.011,-0.006
2613,-0.589,-0.151,-9.44,-0.004,0.011,-0.006
2716,-0.596,-0.156,-9.428,-0.004,0.011,-0.006
2819,-0.591,-0.158,-9.433,-0.005,0.011,-0.006
2922,-0.603,-0.151,-9.419,-0.004,0.011,-0.006
3025,-0.591,-0.16,-9.455,-0.005,0.011,-0.006
3128,-0.596,-0.156,-9.431,-0.004,0.011,-0.005
3231,-0.606,-0.148,-9.44,-0.004,0.011,-0.006
3334,-0.596,-0.158,-9.433,-0.004,0.011,-0.006
3437,-0.591,-0.146,-9.431,-0.005,0.011,-0.006
3540,-0.589,-0.156,-9.438,-0.004,0.012,-0.005
3643,-0.599,-0.156,-9.433,-0.005,0.011,-0.006
3746,-0.599,-0.146,-9.438,-0.004,0.011,-0.006
3849,-0.601,-0.146,-9.433,-0.004,0.011,-0.006
3952,-0.599,-0.148,-9.426,-0.004,0.011,-0.005
4055,-0.601,-0.144,-9.426,-0.004,0.011,-0.005
4158,-0.594,-0.16,-9.44,-0.004,0.011,-0.006
4261,-0.589,-0.158,-9.438,-0.005,0.011,-0.006
4364,-0.603,-0.158,-9.426,-0.005,0.012,-0.006
4467,-0.589,-0.163,-9.445,-0.004,0.011,-0.006
4570,-0.596,-0.153,-9.421,-0.005,0.011,-0.005
4673,-0.603,-0.148,-9.436,-0.005,0.012,-0.006
4776,-0.599,-0.151,-9.443,-0.004,0.012,-0.005
4879,-0.611,-0.146,-9.436,-0.004,0.011,-0.005
4982,-0.589,-0.156,-9.433,-0.004,0.011,-0.006
5085,-0.603,-0.156,-9.445,-0.005,0.011,-0.005
5188,-0.599,-0.141,-9.44,-0.004,0.012,-0.006
5291,-0.599,-0.151,-9.419,-0.004,0.011,-0.006
5394,-0.601,-0.158,-9.438,-0.004,0.011,-0.006
5497,-0.594,-0.151,-9.424,-0.004,0.012,-0.005
5600,-0.606,-0.153,-9.44,-0.004,0.012,-0.005
5703,-0.599,-0.156,-9.45,-0.005,0.011,-0.006
5806,-0.596,-0.151,-9.445,-0.004,0.011,-0.006
5909,-0.606,-0.151,-9.436,-0.004,0.011,-0.006
6012,-0.591,-0.151,-9.428,-0.004,0.012,-0.005
6115,-0.599,-0.163,-9.443,-0.004,0.011,-0.006
6218,-0.608,-0.151,-9.443,-0.004,0.011,-0.006
6321,-0.582,-0.148,-9.438,-0.004,0.011,-0.006
6424,-0.591,-0.151,-9.426,-0.004,0.011,-0.006
6527,-0.596,-0.151,-9.436,-0.005,0.011,-0.005
6630,-0.606,-0.165,-9.438,-0.005,0.011,-0.006
6733,-0.606,-0.16,-9.438,-0.005,0.011,-0.006
6836,-0.601,-0.144,-9.436,-0.004,0.011,-0.005
6939,-0.601,-0.165,-9.44,-0.005,0.011,-0.006
7042,-0.594,-0.153,-9.436,-0.004,0.012,-0.005
7145,-0.603,-0.156,-9.421,-0.004,0.012,-0.006
7248,-0.596,-0.151,-9.45,-0.004,0.012,-0.006
7351,-0.606,-0.16,-9.438,-0.005,0.012,-0.006
7454,-0.594,-0.151,-9.44,-0.005,0.012,-0.006
7557,-0.591,-0.168,-9.455,-0.004,0.011,-0.006
7660,-0.596,-0.156,-9.433,-0.005,0.011,-0.005
7763,-0.599,-0.151,-9.44,-0.005,0.011,-0.006
7866,-0.596,-0.165,-9.443,-0.004,0.011,-0.006
7969,-0.603,-0.146,-9.426,-0.005,0.011,-0.006
8072,-0.608,-0.158,-9.438,-0.005,0.011,-0.006
8175,-0.601,-0.158,-9.436,-0.004,0.011,-0.006
8278,-0.606,-0.151,-9.436,-0.004,0.012,-0.006
8381,-0.606,-0.158,-9.448,-0.004,0.012,-0.006
8484,-0.596,-0.163,-9.445,-0.004,0.011,-0.005
8587,-0.596,-0.148,-9.433,-0.005,0.011,-0.006
8690,-0.599,-0.16,-9.445,-0.004,0.011,-0.006
8793,-0.599,-0.151,-9.44,-0.004,0.011,-0.006
8896,-0.601,-0.156,-9.438,-0.004,0.012,-0.005
8999,-0.603,-0.151,-9.426,-0.004,0.011,-0.005
9102,-0.599,-0.146,-9.445,-0.005,0.011,-0.006
9205,-0.601,-0.146,-9.438,-0.004,0.011,-0.006
9308,-0.596,-0.158,-9.445,-0.004,0.011,-0.006
9411,-0.608,-0.153,-9.433,-0.004,0.012,-0.006
9514,-0.603,-0.158,-9.438,-0.004,0.012,-0.006
9617,-0.594,-0.153,-9.431,-0.004,0.012,-0.005
9720,-0.591,-0.158,-9.44,-0.004,0.012,-0.005
9823,-0.594,-0.163,-9.438,-0.004,0.012,-0.006
9926,-0.591,-0.158,-9.44,-0.004,0.012,-0.006
10029,-0.591,-0.16,-9.433,-0.004,0.011,-0.006
10132,-0.599,-0.163,-9.44,-0.004,0.012,-0.006
10235,-0.599,-0.136,-9.44,-0.005,0.012,-0.006
10338,-0.589,-0.153,-9.428,-0.005,0.011,-0.006
10441,-0.599,-0.139,-9.448,-0.004,0.012,-0.006
10544,-0.603,-0.156,-9.426,-0.004,0.011,-0.006
10647,-0.599,-0.146,-9.448,-0.005,0.012,-0.006
10750,-0.603,-0.148,-9.421,-0.004,0.011,-0.006
10853,-0.601,-0.156,-9.44,-0.004,0.012,-0.006
10956,-0.599,-0.158,-9.443,-0.004,0.012,-0.006
11059,-0.596,-0.141,-9.431,-0.004,0.012,-0.006
11162,-0.591,-0.156,-9.455,-0.004,0.012,-0.006
11265,-0.596,-0.156,-9.438,-0.005,0.012,-0.005
11368,-0.611,-0.136,-9.424,-0.004,0.011,-0.006
11471,-0.601,-0.16,-9.433,-0.004,0.012,-0.006
11574,-0.611,-0.151,-9.44,-0.004,0.011,-0.006
11677,-0.587,-0.151,-9.443,-0.004,0.011,-0.006
11780,-0.606,-0.158,-9.44,-0.004,0.011,-0.006
11883,-0.596,-0.144,-9.448,-0.004,0.011,-0.006
11986,-0.594,-0.163,-9.445,-0.004,0.011,-0.006
12089,-0.591,-0.151,-9.448,-0.005,0.011,-0.006
12192,-0.601,-0.17,-9.44,-0.005,0.011,-0.006
12295,-0.591,-0.146,-9.428,-0.005,0.011,-0.007
12398,-0.603,-0.146,-9.44,-0.005,0.01,-0.005
12501,-0.601,-0.156,-9.448,-0.005,0.01,-0.006
12604,-0.594,-0.146,-9.452,-0.005,0.01,-0.006
12707,-0.618,-0.132,-9.436,-0.005,0.009,-0.007
12810,-0.618,-0.115,-9.433,-0.004,0.012,-0.006
12913,-0.599,-0.148,-9.457,-0.004,0.011,-0.005
13016,-0.594,-0.156,-9.45,-0.005,0.011,-0.006
13119,-0.606,-0.156,-9.433,-0.004,0.011,-0.006
13222,-0.613,-0.151,-9.426,-0.005,0.011,-0.005
13325,-0.608,-0.151,-9.436,-0.004,0.011,-0.006
13428,-0.599,-0.151,-9.438,-0.004,0.011,-0.006
13531,-0.606,-0.146,-9.457,-0.005,0.011,-0.005
13634,-0.603,-0.148,-9.436,-0.004,0.011,-0.005
13737,-0.599,-0.153,-9.448,-0.005,0.011,-0.005
13840,-0.606,-0.148,-9.428,-0.004,0.011,-0.006
13943,-0.611,-0.153,-9.433,-0.004,0.012,-0.006
14046,-0.606,-0.153,-9.438,-0.004,0.011,-0.006
14149,-0.599,-0.156,-9.443,-0.004,0.012,-0.006
14252,-0.599,-0.146,-9.438,-0.004,0.012,-0.005
14355,-0.606,-0.151,-9.455,-0.005,0.011,-0.006
14458,-0.606,-0.144,-9.44,-0.004,0.012,-0.006
14561,-0.611,-0.153,-9.452,-0.004,0.011,-0.005
14664,-0.601,-0.146,-9.452,-0.004,0.011,-0.005
14767,-0.611,-0.146,-9.438,-0.004,0.011,-0.005
14870,-0.608,-0.146,-9.436,-0.004,0.012,-0.005
14973,-0.611,-0.153,-9.445,-0.004,0.012,-0.006
15076,-0.603,-0.156,-9.445,-0.004,0.012,-0.006
15179,-0.599,-0.146,-9.426,-0.004,0.011,-0.006
15282,-0.606,-0.146,-9.438,-0.004,0.011,-0.006
15385,-0.603,-0.151,-9.448,-0.004,0.012,-0.006
15488,-0.613,-0.146,-9.438,-0.005,0.012,-0.005
15591,-0.606,-0.141,-9.44,-0.005,0.011,-0.005
15694,-0.613,-0.156,-9.443,-0.004,0.011,-0.005
15797,-0.608,-0.144,-9.445,-0.005,0.011,-0.005
15900,-0.608,-0.134,-9.462,-0.004,0.012,-0.005
16003,-0.608,-0.151,-9.457,-0.005,0.012,-0.005
16106,-0.615,-0.139,-9.431,-0.004,0.012,-0.005
16209,-0.601,-0.156,-9.44,-0.004,0.012,-0.006
16312,-0.596,-0.148,-9.445,-0.004,0.011,-0.005
16415,-0.608,-0.153,-9.443,-0.004,0.012,-0.006
16518,-0.611,-0.153,-9.445,-0.004,0.011,-0.006
16621,-0.603,-0.148,-9.426,-0.005,0.011,-0.006
16724,-0.611,-0.144,-9.457,-0.004,0.012,-0.006
16827,-0.606,-0.148,-9.44,-0.004,0.012,-0.006
16930,-0.608,-0.139,-9.433,-0.005,0.011,-0.006
17033,-0.608,-0.156,-9.448,-0.004,0.011,-0.006
17136,-0.603,-0.144,-9.45,-0.004,0.011,-0.005
17239,-0.611,-0.153,-9.438,-0.005,0.012,-0.006
17342,-0.606,-0.148,-9.44,-0.004,0.011,-0.006
17445,-0.603,-0.148,-9.443,-0.005,0.012,-0.006
17548,-0.606,-0.141,-9.438,-0.004,0.011,-0.005
17651,-0.608,-0.151,-9.445,-0.004,0.011,-0.006
17754,-0.601,-0.156,-9.445,-0.004,0.011,-0.005
17857,-0.606,-0.156,-9.445,-0.005,0.011,-0.005
17960,-0.603,-0.153,-9.443,-0.004,0.012,-0.006
18063,-0.62,-0.146,-9.45,-0.004,0.011,-0.005
18166,-0.608,-0.151,-9.448,-0.004,0.011,-0.006
18269,-0.608,-0.158,-9.44,-0.005,0.012,-0.005
18372,-0.603,-0.153,-9.443,-0.004,0.011,-0.006
18475,-0.608,-0.151,-9.445,-0.004,0.011,-0.006
18578,-0.603,-0.146,-9.443,-0.004,0.011,-0.006
18681,-0.596,-0.136,-9.445,-0.005,0.012,-0.006
18784,-0.601,-0.156,-9.438,-0.004,0.012,-0.005
18887,-0.615,-0.136,-9.448,-0.005,0.011,-0.005
18990,-0.611,-0.144,-9.45,-0.004,0.012,-0.005
19093,-0.611,-0.16,-9.438,-0.004,0.012,-0.006
19196,-0.606,-0.144,-9.448,-0.004,0.012,-0.005
19299,-0.608,-0.144,-9.438,-0.004,0.011,-0.006
19402,-0.599,-0.148,-9.436,-0.005,0.012,-0.006
19505,-0.606,-0.148,-9.445,-0.004,0.011,-0.005
19608,-0.613,-0.148,-9.445,-0.004,0.012,-0.006
19711,-0.608,-0.148,-9.426,-0.005,0.011,-0.006
19814,-0.599,-0.153,-9.443,-0.005,0.012,-0.006
19917,-0.618,-0.151,-9.44,-0.005,0.012,-0.005
20020,-0.603,-0.153,-9.445,-0.004,0.012,-0.006
20123,-0.606,-0.148,-9.438,-0.005,0.011,-0.005
20226,-0.608,-0.148,-9.45,-0.004,0.011,-0.006
20329,-0.606,-0.139,-9.436,-0.004,0.011,-0.005
20432,-0.606,-0.144,-9.445,-0.004,0.012,-0.006
20535,-0.608,-0.148,-9.448,-0.005,0.012,-0.005
20638,-0.599,-0.144,-9.438,-0.004,0.012,-0.005
20741,-0.606,-0.146,-9.431,-0.004,0.011,-0.006
20844,-0.608,-0.148,-9.452,-0.004,0.011,-0.005
20947,-0.603,-0.146,-9.438,-0.005,0.011,-0.006
21050,-0.615,-0.148,-9.448,-0.004,0.012,-0.006
21153,-0.608,-0.158,-9.433,-0.004,0.011,-0.006
21256,-0.596,-0.144,-9.445,-0.004,0.011,-0.006
21359,-0.606,-0.151,-9.443,-0.004,0.011,-0.006
21462,-0.608,-0.151,-9.448,-0.004,0.012,-0.005
21565,-0.606,-0.158,-9.455,-0.004,0.011,-0.005
21668,-0.596,-0.153,-9.445,-0.004,0.011,-0.005
21771,-0.608,-0.146,-9.438,-0.004,0.011,-0.006
21874,-0.594,-0.153,-9.452,-0.004,0.011,-0.005
21977,-0.606,-0.139,-9.433,-0.004,0.011,-0.005
22080,-0.601,-0.144,-9.44,-0.004,0.012,-0.005
22183,-0.606,-0.158,-9.445,-0.004,0.011,-0.006
22286,-0.601,-0.144,-9.452,-0.004,0.012,-0.005
22389,-0.603,-0.151,-9.443,-0.004,0.012,-0.005
22492,-0.613,-0.16,-9.448,-0.005,0.012,-0.005
22595,-0.606,-0.136,-9.443,-0.005,0.012,-0.005
22698,-0.613,-0.148,-9.44,-0.004,0.012,-0.005
22801,-0.611,-0.153,-9.452,-0.004,0.012,-0.005
22904,-0.606,-0.139,-9.45,-0.004,0.012,-0.006
23007,-0.606,-0.153,-9.44,-0.005,0.011,-0.006
23110,-0.606,-0.144,-9.436,-0.004,0.011,-0.005
23213,-0.606,-0.148,-9.438,-0.004,0.012,-0.006
23316,-0.608,-0.151,-9.438,-0.004,0.011,-0.006
23419,-0.611,-0.146,-9.436,-0.004,0.011,-0.005
23522,-0.606,-0.158,-9.428,-0.004,0.011,-0.006
23625,-0.606,-0.148,-9.44,-0.005,0.012,-0.006
23728,-0.601,-0.144,-9.431,-0.004,0.012,-0.005
23831,-0.596,-0.146,-9.448,-0.004,0.012,-0.006
23934,-0.608,-0.148,-9.445,-0.004,0.011,-0.005
24037,-0.608,-0.153,-9.44,-0.004,0.012,-0.006
24140,-0.608,-0.148,-9.44,-0.004,0.011,-0.006
24243,-0.611,-0.141,-9.445,-0.004,0.011,-0.006
24346,-0.601,-0.141,-9.438,-0.005,0.011,-0.005
24449,-0.603,-0.151,-9.443,-0.004,0.011,-0.006
24552,-0.603,-0.148,-9.448,-0.004,0.011,-0.006
24655,-0.606,-0.146,-9.445,-0.004,0.011,-0.006
24758,-0.608,-0.146,-9.452,-0.004,0.012,-0.006
24861,-0.611,-0.144,-9.443,-0.004,0.012,-0.006
24964,-0.601,-0.148,-9.462,-0.004,0.011,-0.005
25067,-0.606,-0.144,-9.457,-0.005,0.012,-0.006
25170,-0.608,-0.151,-9.457,-0.004,0.012,-0.006
25273,-0.608,-0.148,-9.436,-0.004,0.011,-0.005
25376,-0.601,-0.148,-9.445,-0.004,0.012,-0.005
25479,-0.613,-0.148,-9.448,-0.004,0.011,-0.005
25582,-0.606,-0.153,-9.452,-0.005,0.011,-0.005
25685,-0.606,-0.146,-9.45,-0.004,0.011,-0.006
25788,-0.603,-0.148,-9.452,-0.004,0.012,-0.005
25891,-0.608,-0.151,-9.433,-0.004,0.011,-0.005
25994,-0.606,-0.146,-9.44,-0.005,0.012,-0.005
26097,-0.613,-0.151,-9.452,-0.004,0.011,-0.005
26200,-0.603,-0.151,-9.45,-0.004,0.012,-0.006
26303,-0.608,-0.146,-9.436,-0.004,0.012,-0.006
26406,-0.599,-0.153,-9.436,-0.005,0.011,-0.005
26509,-0.611,-0.146,-9.448,-0.005,0.012,-0.006
26612,-0.608,-0.151,-9.445,-0.004,0.012,-0.006
26715,-0.611,-0.144,-9.445,-0.004,0.011,-0.006
26818,-0.601,-0.139,-9.452,-0.004,0.012,-0.005
26921,-0.611,-0.156,-9.455,-0.004,0.012,-0.006
27024,-0.611,-0.148,-9.436,-0.005,0.011,-0.005
27127,-0.603,-0.146,-9.436,-0.004,0.011,-0.005
27230,-0.606,-0.151,-9.438,-0.004,0.012,-0.005
27333,-0.613,-0.146,-9.44,-0.004,0.011,-0.005
27436,-0.601,-0.153,-9.452,-0.004,0.012,-0.006
27539,-0.601,-0.16,-9.438,-0.005,0.012,-0.006
27642,-0.611,-0.146,-9.436,-0.005,0.011,-0.005
27745,-0.596,-0.144,-9.445,-0.004,0.012,-0.006
27848,-0.606,-0.151,-9.455,-0.004,0.011,-0.006
27951,-0.603,-0.148,-9.448,-0.005,0.013,-0.006
28054,-0.606,-0.148,-9.44,-0.004,0.012,-0.006
28157,-0.603,-0.141,-9.459,-0.004,0.012,-0.006
28260,-0.608,-0.151,-9.44,-0.004,0.011,-0.006
28363,-0.608,-0.156,-9.443,-0.004,0.012,-0.005
28466,-0.601,-0.153,-9.448,-0.004,0.012,-0.006
28569,-0.625,-0.091,-9.443,-0.004,0.011,-0.006
28672,-0.613,-0.117,-9.45,-0.005,0.012,-0.006
28775,-0.603,-0.139,-9.443,-0.005,0.012,-0.006
28878,-0.601,-0.16,-9.436,-0.004,0.012,-0.006
28981,-0.608,-0.148,-9.452,-0.005,0.012,-0.005
29084,-0.606,-0.139,-9.436,-0.004,0.012,-0.005
29187,-0.599,-0.158,-9.44,-0.004,0.012,-0.005
29290,-0.606,-0.148,-9.433,-0.004,0.011,-0.005
29393,-0.601,-0.146,-9.44,-0.005,0.011,-0.006
29496,-0.611,-0.144,-9.452,-0.004,0.011,-0.006
29599,-0.603,-0.144,-9.443,-0.004,0.011,-0.006
29702,-0.596,-0.148,-9.452,-0.004,0.011,-0.006
29805,-0.596,-0.144,-9.455,-0.004,0.011,-0.005
29908,-0.599,-0.146,-9.428,-0.005,0.012,-0.005
30011,-0.608,-0.156,-9.455,-0.005,0.012,-0.006
30114,-0.608,-0.148,-9.452,-0.005,0.012,-0.005
30217,-0.603,-0.146,-9.459,-0.005,0.012,-0.006
30320,-0.611,-0.148,-9.448,-0.004,0.012,-0.006
30423,-0.599,-0.158,-9.448,-0.004,0.012,-0.006
30526,-0.599,-0.151,-9.457,-0.004,0.012,-0.006
30629,-0.611,-0.158,-9.438,-0.004,0.012,-0.006
30732,-0.603,-0.146,-9.44,-0.005,0.012,-0.005
30835,-0.608,-0.158,-9.433,-0.004,0.011,-0.006
30938,-0.606,-0.156,-9.448,-0.005,0.011,-0.005
31041,-0.608,-0.144,-9.45,-0.005,0.012,-0.005
31144,-0.603,-0.158,-9.45,-0.005,0.012,-0.006
31247,-0.606,-0.153,-9.443,-0.005,0.011,-0.005
31350,-0.606,-0.153,-9.455,-0.005,0.011,-0.005
31453,-0.603,-0.146,-9.452,-0.004,0.012,-0.006
31556,-0.599,-0.146,-9.438,-0.005,0.012,-0.005
31659,-0.601,-0.139,-9.445,-0.004,0.012,-0.005
31762,-0.606,-0.151,-9.452,-0.004,0.011,-0.005
31865,-0.603,-0.151,-9.433,-0.004,0.012,-0.006
31968,-0.608,-0.146,-9.448,-0.004,0.011,-0.005
32071,-0.603,-0.146,-9.445,-0.004,0.011,-0.005
32174,-0.601,-0.148,-9.464,-0.004,0.012,-0.006
32277,-0.596,-0.158,-9.44,-0.004,0.011,-0.005
32380,-0.603,-0.144,-9.445,-0.004,0.011,-0.006
32483,-0.606,-0.144,-9.448,-0.004,0.012,-0.006
32586,-0.601,-0.151,-9.455,-0.004,0.012,-0.005
32689,-0.599,-0.144,-9.455,-0.005,0.011,-0.005
32792,-0.603,-0.151,-9.445,-0.004,0.012,-0.006
32895,-0.601,-0.151,-9.445,-0.004,0.011,-0.005
32998,-0.606,-0.144,-9.445,-0.004,0.011,-0.006
33101,-0.603,-0.141,-9.45,-0.004,0.011,-0.006
33204,-0.603,-0.151,-9.44,-0.005,0.011,-0.005
33307,-0.603,-0.153,-9.445,-0.004,0.012,-0.006
33410,-0.608,-0.148,-9.445,-0.005,0.012,-0.005
33513,-0.606,-0.141,-9.445,-0.005,0.011,-0.006
33616,-0.603,-0.148,-9.44,-0.005,0.012,-0.006
33719,-0.596,-0.146,-9.445,-0.005,0.012,-0.005
33822,-0.596,-0.153,-9.448,-0.004,0.012,-0.005
33925,-0.608,-0.153,-9.467,-0.004,0.012,-0.005
34028,-0.599,-0.151,-9.448,-0.005,0.012,-0.005
34131,-0.601,-0.144,-9.445,-0.005,0.011,-0.006
34234,-0.594,-0.148,-9.44,-0.004,0.012,-0.006
34337,-0.599,-0.139,-9.443,-0.004,0.011,-0.006
34440,-0.601,-0.144,-9.436,-0.004,0.012,-0.006
34543,-0.603,-0.153,-9.44,-0.004,0.012,-0.006
34646,-0.601,-0.148,-9.438,-0.005,0.011,-0.005
34749,-0.603,-0.148,-9.462,-0.004,0.012,-0.005
34852,-0.603,-0.148,-9.448,-0.005,0.011,-0.005
34955,-0.603,-0.141,-9.457,-0.005,0.011,-0.006
35058,-0.599,-0.156,-9.457,-0.004,0.012,-0.006
35161,-0.599,-0.141,-9.45,-0.005,0.012,-0.005
35264,-0.603,-0.144,-9.445,-0.005,0.012,-0.006
35367,-0.608,-0.153,-9.452,-0.004,0.011,-0.006
35470,-0.599,-0.139,-9.44,-0.005,0.012,-0.005
35573,-0.601,-0.153,-9.448,-0.004,0.011,-0.006
35676,-0.613,-0.139,-9.455,-0.004,0.012,-0.005
35779,-0.594,-0.141,-9.443,-0.005,0.011,-0.005
35882,-0.608,-0.156,-9.462,-0.004,0.012,-0.005
35985,-0.608,-0.146,-9.459,-0.005,0.011,-0.005
36088,-0.615,-0.146,-9.443,-0.004,0.011,-0.006
36191,-0.596,-0.153,-9.452,-0.004,0.011,-0.006
36294,-0.599,-0.148,-9.445,-0.005,0.011,-0.005
36397,-0.606,-0.139,-9.45,-0.005,0.012,-0.006
36500,-0.601,-0.146,-9.445,-0.004,0.012,-0.005
36603,-0.599,-0.141,-9.443,-0.005,0.012,-0.006
36706,-0.599,-0.144,-9.433,-0.004,0.011,-0.006
36809,-0.601,-0.153,-9.445,-0.005,0.011,-0.005
36912,-0.601,-0.151,-9.45,-0.004,0.012,-0.006
37015,-0.596,-0.156,-9.457,-0.005,0.011,-0.005
37118,-0.601,-0.144,-9.45,-0.005,0.012,-0.006
37221,-0.606,-0.144,-9.452,-0.005,0.012,-0.005
37324,-0.603,-0.153,-9.445,-0.004,0.011,-0.005
37427,-0.606,-0.144,-9.448,-0.004,0.011,-0.005
37530,-0.596,-0.136,-9.448,-0.004,0.012,-0.005
37633,-0.611,-0.148,-9.45,-0.005,0.011,-0.005
37736,-0.601,-0.146,-9.448,-0.004,0.012,-0.006
37839,-0.603,-0.148,-9.443,-0.004,0.011,-0.006
37942,-0.603,-0.146,-9.452,-0.005,0.012,-0.005
38045,-0.591,-0.136,-9.443,-0.004,0.012,-0.006
38148,-0.606,-0.158,-9.438,-0.005,0.011,-0.006
38251,-0.603,-0.141,-9.448,-0.004,0.011,-0.005
38354,-0.596,-0.141,-9.443,-0.004,0.012,-0.005
38457,-0.596,-0.141,-9.445,-0.005,0.011,-0.006
38560,-0.596,-0.141,-9.45,-0.005,0.012,-0.005
38663,-0.601,-0.144,-9.443,-0.005,0.012,-0.005
38766,-0.615,-0.141,-9.452,-0.005,0.011,-0.005
38869,-0.599,-0.136,-9.452,-0.004,0.011,-0.006
38972,-0.608,-0.148,-9.457,-0.004,0.011,-0.006
39075,-0.608,-0.151,-9.464,-0.004,0.012,-0.005
39178,-0.603,-0.146,-9.457,-0.004,0.012,-0.005
39281,-0.606,-0.151,-9.452,-0.004,0.012,-0.006
39384,-0.606,-0.148,-9.44,-0.004,0.012,-0.005
39487,-0.606,-0.153,-9.445,-0.005,0.012,-0.006
39590,-0.606,-0.141,-9.445,-0.005,0.012,-0.006
39693,-0.615,-0.139,-9.445,-0.005,0.012,-0.005
39796,-0.603,-0.153,-9.452,-0.004,0.012,-0.006
39899,-0.608,-0.146,-9.445,-0.004,0.012,-0.005
40002,-0.601,-0.146,-9.443,-0.004,0.012,-0.006
40105,-0.601,-0.156,-9.457,-0.004,0.012,-0.006
40208,-0.603,-0.141,-9.445,-0.004,0.012,-0.006
40311,-0.608,-0.148,-9.452,-0.004,0.012,-0.005
40414,-0.608,-0.153,-9.45,-0.004,0.011,-0.005
40517,-0.596,-0.144,-9.45,-0.005,0.012,-0.005
40620,-0.615,-0.151,-9.452,-0.005,0.012,-0.005
40723,-0.611,-0.148,-9.452,-0.005,0.012,-0.006
40826,-0.603,-0.141,-9.431,-0.005,0.012,-0.005
40929,-0.601,-0.158,-9.45,-0.004,0.011,-0.005
41032,-0.601,-0.144,-9.448,-0.004,0.011,-0.005
41135,-0.611,-0.141,-9.45,-0.004,0.011,-0.006
41238,-0.606,-0.148,-9.443,-0.005,0.012,-0.006
41341,-0.601,-0.144,-9.433,-0.004,0.012,-0.006
41444,-0.601,-0.146,-9.438,-0.005,0.012,-0.006
41547,-0.606,-0.144,-9.452,-0.004,0.012,-0.006
41650,-0.606,-0.139,-9.438,-0.004,0.011,-0.006
41753,-0.596,-0.156,-9.452,-0.004,0.011,-0.006
41856,-0.603,-0.146,-9.455,-0.004,0.012,-0.005
41959,-0.601,-0.148,-9.436,-0.004,0.011,-0.005
42062,-0.608,-0.156,-9.459,-0.004,0.011,-0.005
42165,-0.606,-0.151,-9.452,-0.004,0.012,-0.005
42268,-0.613,-0.144,-9.455,-0.005,0.011,-0.006
42371,-0.603,-0.148,-9.443,-0.005,0.012,-0.005
42474,-0.599,-0.151,-9.44,-0.004,0.012,-0.005
42577,-0.603,-0.136,-9.45,-0.004,0.012,-0.006
42680,-0.601,-0.151,-9.448,-0.005,0.012,-0.005
42783,-0.599,-0.151,-9.45,-0.004,0.012,-0.005
42886,-0.608,-0.148,-9.457,-0.004,0.012,-0.005
42989,-0.594,-0.148,-9.445,-0.005,0.012,-0.005
43092,-0.611,-0.144,-9.457,-0.004,0.012,-0.005
43195,-0.606,-0.163,-9.448,-0.004,0.012,-0.005
43298,-0.594,-0.146,-9.462,-0.004,0.012,-0.005
43401,-0.601,-0.144,-9.457,-0.005,0.012,-0.006
43504,-0.594,-0.153,-9.445,-0.004,0.011,-0.006
43607,-0.601,-0.146,-9.445,-0.005,0.011,-0.006
43710,-0.606,-0.148,-9.445,-0.004,0.011,-0.006
43813,-0.601,-0.153,-9.462,-0.005,0.011,-0.005
43916,-0.608,-0.146,-9.459,-0.005,0.012,-0.005
44019,-0.601,-0.151,-9.433,-0.005,0.011,-0.006
44122,-0.608,-0.136,-9.464,-0.005,0.011,-0.005
44225,-0.599,-0.139,-9.445,-0.005,0.012,-0.006
44328,-0.606,-0.139,-9.448,-0.005,0.012,-0.005
44431,-0.608,-0.153,-9.448,-0.005,0.012,-0.005
44534,-0.608,-0.146,-9.44,-0.004,0.011,-0.006
44637,-0.589,-0.156,-9.452,-0.005,0.012,-0.005
44740,-0.601,-0.139,-9.438,-0.005,0.011,-0.005
44843,-0.608,-0.156,-9.438,-0.005,0.011,-0.006
44946,-0.599,-0.156,-9.445,-0.005,0.012,-0.005
45049,-0.596,-0.153,-9.448,-0.004,0.011,-0.005
45152,-0.611,-0.165,-9.457,-0.005,0.011,-0.005
45255,-0.596,-0.148,-9.464,-0.005,0.011,-0.005
45358,-0.596,-0.153,-9.467,-0.005,0.012,-0.005
45461,-0.603,-0.144,-9.438,-0.005,0.012,-0.006
45564,-0.603,-0.146,-9.452,-0.005,0.011,-0.005
45667,-0.596,-0.153,-9.445,-0.005,0.012,-0.006
45770,-0.613,-0.146,-9.452,-0.004,0.011,-0.005
45873,-0.601,-0.136,-9.45,-0.005,0.012,-0.005
45976,-0.599,-0.148,-9.448,-0.004,0.012,-0.006
46079,-0.611,-0.148,-9.455,-0.005,0.012,-0.006
46182,-0.599,-0.146,-9.455,-0.005,0.011,-0.006
46285,-0.608,-0.165,-9.443,-0.004,0.011,-0.005
46388,-0.606,-0.151,-9.445,-0.004,0.011,-0.005
46491,-0.611,-0.146,-9.445,-0.004,0.011,-0.005
46594,-0.603,-0.146,-9.455,-0.004,0.011,-0.006
46697,-0.603,-0.141,-9.452,-0.004,0.011,-0.005
46800,-0.615,-0.156,-9.438,-0.005,0.012,-0.006
46903,-0.603,-0.144,-9.436,-0.005,0.011,-0.006
47006,-0.599,-0.141,-9.452,-0.005,0.011,-0.005
47109,-0.606,-0.156,-9.445,-0.005,0.011,-0.006
47212,-0.599,-0.148,-9.443,-0.004,0.011,-0.005
47315,-0.611,-0.146,-9.464,-0.004,0.011,-0.005
47418,-0.601,-0.156,-9.452,-0.005,0.011,-0.005
47521,-0.608,-0.148,-9.445,-0.004,0.012,-0.005
47624,-0.606,-0.148,-9.452,-0.005,0.012,-0.006
47727,-0.594,-0.151,-9.455,-0.005,0.011,-0.005
47830,-0.601,-0.144,-9.445,-0.004,0.011,-0.006
47933,-0.601,-0.151,-9.433,-0.004,0.012,-0.006
48036,-0.608,-0.153,-9.448,-0.005,0.011,-0.006
48139,-0.608,-0.141,-9.443,-0.005,0.011,-0.005
48242,-0.608,-0.151,-9.448,-0.004,0.011,-0.005
48345,-0.599,-0.153,-9.459,-0.004,0.011,-0.005
48448,-0.601,-0.151,-9.452,-0.005,0.011,-0.006
48551,-0.606,-0.151,-9.452,-0.005,0.012,-0.006
48654,-0.603,-0.158,-9.445,-0.004,0.011,-0.005
48757,-0.594,-0.151,-9.44,-0.005,0.012,-0.006
48860,-0.603,-0.151,-9.452,-0.004,0.011,-0.006
48963,-0.611,-0.151,-9.443,-0.005,0.012,-0.006
49066,-0.603,-0.148,-9.459,-0.005,0.011,-0.006
49169,-0.608,-0.16,-9.452,-0.005,0.011,-0.005
49272,-0.608,-0.136,-9.445,-0.005,0.011,-0.006
49375,-0.599,-0.156,-9.443,-0.004,0.012,-0.006
49478,-0.606,-0.153,-9.44,-0.004,0.011,-0.006
49581,-0.599,-0.148,-9.436,-0.004,0.012,-0.006
49684,-0.606,-0.156,-9.462,-0.005,0.011,-0.005
49787,-0.608,-0.148,-9.428,-0.005,0.011,-0.006
49890,-0.606,-0.156,-9.45,-0.004,0.011,-0.006
49993,-0.613,-0.156,-9.443,-0.005,0.011,-0.005
50096,-0.601,-0.148,-9.445,-0.004,0.011,-0.005
50199,-0.601,-0.153,-9.448,-0.004,0.011,-0.006
50302,-0.596,-0.151,-9.452,-0.004,0.012,-0.005
50405,-0.601,-0.139,-9.44,-0.004,0.012,-0.005
50508,-0.603,-0.156,-9.45,-0.004,0.012,-0.006
50611,-0.615,-0.151,-9.436,-0.005,0.012,-0.005
50714,-0.606,-0.146,-9.452,-0.005,0.011,-0.005
50817,-0.606,-0.151,-9.431,-0.005,0.011,-0.006
50920,-0.606,-0.144,-9.455,-0.004,0.011,-0.005
51023,-0.601,-0.151,-9.443,-0.004,0.012,-0.005
51126,-0.603,-0.153,-9.464,-0.005,0.012,-0.005
51229,-0.596,-0.141,-9.45,-0.004,0.012,-0.005
51332,-0.611,-0.146,-9.438,-0.005,0.011,-0.005
51435,-0.601,-0.141,-9.44,-0.005,0.011,-0.005
51538,-0.613,-0.141,-9.448,-0.005,0.012,-0.005
51641,-0.611,-0.148,-9.44,-0.004,0.011,-0.005
51744,-0.611,-0.151,-9.452,-0.004,0.012,-0.005
51847,-0.601,-0.156,-9.459,-0.004,0.011,-0.005
51950,-0.608,-0.151,-9.452,-0.004,0.012,-0.005
52053,-0.596,-0.151,-9.448,-0.005,0.011,-0.005
52156,-0.611,-0.156,-9.452,-0.004,0.012,-0.006
52259,-0.608,-0.151,-9.448,-0.004,0.011,-0.005
52362,-0.608,-0.151,-9.445,-0.004,0.012,-0.005
52465,-0.603,-0.153,-9.452,-0.005,0.012,-0.006
52568,-0.599,-0.148,-9.431,-0.004,0.012,-0.006
52671,-0.603,-0.153,-9.459,-0.005,0.012,-0.005
52774,-0.611,-0.148,-9.462,-0.004,0.012,-0.005
52877,-0.611,-0.148,-9.455,-0.004,0.011,-0.005
52980,-0.603,-0.156,-9.436,-0.005,0.012,-0.006
53083,-0.608,-0.146,-9.436,-0.004,0.011,-0.005
53186,-0.603,-0.146,-9.445,-0.005,0.012,-0.005
53289,-0.606,-0.151,-9.455,-0.004,0.012,-0.005
53392,-0.606,-0.146,-9.457,-0.005,0.011,-0.005
53495,-0.601,-0.141,-9.45,-0.004,0.011,-0.006
53598,-0.599,-0.153,-9.445,-0.004,0.012,-0.006
53701,-0.596,-0.144,-9.45,-0.004,0.011,-0.005
53804,-0.606,-0.146,-9.452,-0.004,0.012,-0.005
53907,-0.601,-0.156,-9.438,-0.005,0.012,-0.005
54010,-0.601,-0.139,-9.459,-0.004,0.011,-0.006
54113,-0.596,-0.156,-9.452,-0.004,0.011,-0.006
54216,-0.608,-0.136,-9.45,-0.005,0.011,-0.005
54319,-0.596,-0.146,-9.443,-0.004,0.012,-0.006
54422,-0.606,-0.151,-9.455,-0.005,0.011,-0.006
54525,-0.608,-0.146,-9.45,-0.004,0.011,-0.006
54628,-0.608,-0.151,-9.44,-0.005,0.011,-0.005
54731,-0.62,-0.151,-9.452,-0.004,0.011,-0.006
54834,-0.62,-0.141,-9.448,-0.005,0.012,-0.006
54937,-0.606,-0.163,-9.452,-0.005,0.012,-0.006
55040,-0.603,-0.148,-9.45,-0.005,0.011,-0.005
55143,-0.615,-0.151,-9.469,-0.004,0.011,-0.005
55246,-0.603,-0.146,-9.45,-0.005,0.011,-0.005
55349,-0.599,-0.146,-9.452,-0.005,0.011,-0.005
55452,-0.611,-0.148,-9.452,-0.004,0.011,-0.006
55555,-0.608,-0.144,-9.457,-0.005,0.011,-0.006
55658,-0.603,-0.151,-9.448,-0.005,0.011,-0.005
55761,-0.613,-0.148,-9.448,-0.004,0.012,-0.006
55864,-0.608,-0.151,-9.457,-0.004,0.012,-0.005
55967,-0.596,-0.141,-9.438,-0.004,0.012,-0.006
56070,-0.596,-0.151,-9.445,-0.005,0.012,-0.005
56173,-0.613,-0.153,-9.452,-0.005,0.011,-0.005
56276,-0.603,-0.144,-9.443,-0.005,0.012,-0.005
56379,-0.611,-0.153,-9.452,-0.005,0.011,-0.006
56482,-0.608,-0.153,-9.455,-0.005,0.011,-0.006
56585,-0.599,-0.141,-9.45,-0.004,0.012,-0.005
56688,-0.599,-0.153,-9.448,-0.004,0.011,-0.005
56791,-0.608,-0.144,-9.448,-0.004,0.011,-0.005
56894,-0.591,-0.146,-9.443,-0.004,0.012,-0.006
56997,-0.596,-0.148,-9.467,-0.004,0.011,-0.006
57100,-0.603,-0.146,-9.459,-0.004,0.011,-0.005
57203,-0.606,-0.146,-9.455,-0.004,0.012,-0.006
57306,-0.608,-0.146,-9.452,-0.004,0.012,-0.005
57409,-0.606,-0.153,-9.445,-0.004,0.011,-0.006
57512,-0.596,-0.153,-9.438,-0.004,0.012,-0.006
57615,-0.603,-0.156,-9.436,-0.005,0.012,-0.006
57718,-0.599,-0.146,-9.445,-0.005,0.011,-0.005
57821,-0.608,-0.153,-9.443,-0.005,0.012,-0.005
57924,-0.608,-0.139,-9.452,-0.005,0.011,-0.006
58027,-0.608,-0.136,-9.455,-0.004,0.012,-0.005
58130,-0.601,-0.146,-9.455,-0.004,0.012,-0.006
58233,-0.611,-0.144,-9.452,-0.005,0.011,-0.005
58336,-0.601,-0.141,-9.455,-0.004,0.012,-0.005
58439,-0.603,-0.144,-9.443,-0.005,0.012,-0.005
58542,-0.611,-0.136,-9.452,-0.005,0.011,-0.006
58645,-0.611,-0.148,-9.445,-0.004,0.012,-0.006
58748,-0.601,-0.146,-9.445,-0.004,0.011,-0.005
58851,-0.603,-0.148,-9.445,-0.004,0.011,-0.005
58954,-0.603,-0.153,-9.443,-0.004,0.011,-0.005
59057,-0.603,-0.132,-9.445,-0.004,0.011,-0.005
59160,-0.603,-0.151,-9.438,-0.005,0.011,-0.005
59263,-0.611,-0.146,-9.443,-0.005,0.012,-0.005
59366,-0.599,-0.151,-9.459,-0.004,0.012,-0.006
59469,-0.603,-0.16,-9.464,-0.004,0.011,-0.006
59572,-0.613,-0.141,-9.45,-0.004,0.012,-0.005
59675,-0.611,-0.148,-9.445,-0.005,0.012,-0.006
59778,-0.596,-0.148,-9.45,-0.005,0.012,-0.005
59881,-0.606,-0.144,-9.438,-0.005,0.011,-0.005
59984,-0.601,-0.158,-9.457,-0.005,0.012,-0.005
60087,-0.599,-0.151,-9.457,-0.004,0.011,-0.006
60190,-0.606,-0.148,-9.452,-0.004,0.011,-0.005
60293,-0.599,-0.156,-9.448,-0.005,0.012,-0.005
60396,-0.596,-0.146,-9.455,-0.005,0.012,-0.005
60499,-0.594,-0.144,-9.455,-0.005,0.011,-0.005
60602,-0.608,-0.153,-9.467,-0.004,0.011,-0.005
60705,-0.611,-0.144,-9.457,-0.005,0.011,-0.006
60808,-0.603,-0.151,-9.464,-0.005,0.012,-0.006
60911,-0.603,-0.153,-9.459,-0.005,0.012,-0.006
61014,-0.594,-0.069,-9.438,0.376,-0.01,-0.023
61117,-0.654,-0.9,-9.412,0.224,-0.002,-0.016
61220,-0.642,-0.848,-9.419,0.006,0.011,-0.007
61323,-0.634,-0.843,-9.416,-0.003,0.011,-0.006
61426,-0.637,-0.84,-9.412,-0.004,0.012,-0.005
61529,-0.646,-0.838,-9.414,-0.005,0.011,-0.006
61632,-0.632,-0.84,-9.414,-0.005,0.012,-0.006
61735,-0.639,-0.855,-9.4,-0.004,0.011,-0.005
61838,-0.649,-0.845,-9.419,-0.004,0.011,-0.005
61941,-0.644,-0.843,-9.407,-0.005,0.012,-0.006
62044,-0.637,-0.84,-9.409,-0.005,0.011,-0.005
62147,-0.646,-0.848,-9.421,-0.004,0.011,-0.005
62250,-0.654,-0.855,-9.409,-0.004,0.012,-0.005
62353,-0.644,-0.84,-9.4,-0.005,0.012,-0.005
62456,-0.649,-0.833,-9.414,-0.004,0.012,-0.006
62559,-0.63,-0.84,-9.419,-0.005,0.011,-0.005
62662,-0.646,-0.838,-9.392,-0.004,0.011,-0.005
62765,-0.642,-0.848,-9.409,-0.004,0.011,-0.006
62868,-0.649,-0.843,-9.412,-0.004,0.012,-0.006
62971,-0.642,-0.838,-9.412,-0.004,0.012,-0.005
63074,-0.634,-0.85,-9.419,-0.004,0.012,-0.006
63177,-0.644,-0.848,-9.409,-0.005,0.011,-0.006
63280,-0.63,-0.86,-9.402,-0.004,0.011,-0.006
63383,-0.642,-0.85,-9.412,-0.004,0.011,-0.006
63486,-0.639,-0.84,-9.419,-0.005,0.012,-0.005
63589,-0.634,-0.84,-9.402,-0.004,0.011,-0.006
63692,-0.644,-0.852,-9.412,-0.004,0.011,-0.006
63795,-0.637,-0.848,-9.409,-0.004,0.011,-0.006
63898,-0.639,-0.845,-9.419,-0.004,0.011,-0.006
64001,-0.639,-0.85,-9.414,-0.004,0.011,-0.005
64104,-0.637,-0.836,-9.426,-0.004,0.011,-0.005
64207,-0.651,-0.845,-9.414,-0.004,0.011,-0.006
64310,-0.644,-0.843,-9.402,-0.004,0.011,-0.005
64413,-0.644,-0.836,-9.428,-0.004,0.011,-0.005
64516,-0.642,-0.85,-9.426,-0.005,0.011,-0.005
64619,-0.632,-0.852,-9.428,-0.005,0.011,-0.006
64722,-0.637,-0.843,-9.416,-0.004,0.012,-0.006
64825,-0.637,-0.84,-9.402,-0.004,0.011,-0.005
64928,-0.649,-0.84,-9.416,-0.004,0.011,-0.005
65031,-0.646,-0.84,-9.424,-0.005,0.011,-0.006
65134,-0.649,-0.85,-9.428,-0.004,0.011,-0.006
65237,-0.642,-0.838,-9.412,-0.004,0.011,-0.006
65340,-0.634,-0.852,-9.402,-0.005,0.012,-0.005
65443,-0.639,-0.843,-9.414,-0.005,0.011,-0.006
65546,-0.646,-0.852,-9.414,-0.004,0.011,-0.005
65649,-0.637,-0.843,-9.416,-0.005,0.011,-0.005
65752,-0.642,-0.843,-9.416,-0.005,0.012,-0.006
65855,-0.642,-0.845,-9.404,-0.005,0.012,-0.006
65958,-0.642,-0.85,-9.407,-0.004,0.011,-0.005
66061,-0.639,-0.838,-9.404,-0.005,0.011,-0.006
66164,-0.642,-0.85,-9.416,-0.005,0.011,-0.005
66267,-0.642,-0.85,-9.412,-0.005,0.012,-0.006
66370,-0.634,-0.848,-9.409,-0.005,0.012,-0.006
66473,-0.649,-0.852,-9.407,-0.005,0.012,-0.006
66576,-0.644,-0.836,-9.407,-0.005,0.011,-0.005
66679,-0.649,-0.843,-9.404,-0.005,0.012,-0.006
66782,-0.649,-0.852,-9.412,-0.005,0.011,-0.006
66885,-0.644,-0.845,-9.402,-0.005,0.011,-0.006
66988,-0.637,-0.85,-9.409,-0.004,0.011,-0.006
67091,-0.644,-0.84,-9.424,-0.004,0.011,-0.005
67194,-0.644,-0.843,-9.412,-0.005,0.011,-0.005
67297,-0.637,-0.857,-9.414,-0.005,0.012,-0.006
67400,-0.644,-0.85,-9.424,-0.004,0.011,-0.005
67503,-0.644,-0.843,-9.416,-0.004,0.011,-0.006
67606,-0.644,-0.857,-9.409,-0.004,0.011,-0.005
67709,-0.642,-0.838,-9.416,-0.005,0.011,-0.006
67812,-0.644,-0.84,-9.404,-0.005,0.011,-0.006
67915,-0.627,-0.831,-9.404,-0.004,0.012,-0.006
68018,-0.639,-0.84,-9.404,-0.005,0.012,-0.006
68121,-0.649,-0.852,-9.402,-0.004,0.011,-0.006
68224,-0.649,-0.848,-9.414,-0.005,0.011,-0.006
68327,-0.642,-0.84,-9.407,-0.005,0.011,-0.005
68430,-0.642,-0.85,-9.421,-0.005,0.011,-0.006
68533,-0.642,-0.848,-9.397,-0.004,0.011,-0.005
68636,-0.646,-0.836,-9.404,-0.005,0.011,-0.005
68739,-0.639,-0.84,-9.419,-0.005,0.011,-0.006
68842,-0.644,-0.845,-9.412,-0.004,0.011,-0.005
68945,-0.649,-0.845,-9.414,-0.004,0.011,-0.005
69048,-0.644,-0.852,-9.419,-0.005,0.011,-0.005
69151,-0.637,-0.84,-9.407,-0.004,0.011,-0.005
69254,-0.63,-0.84,-9.407,-0.005,0.011,-0.006
69357,-0.639,-0.848,-9.419,-0.005,0.011,-0.005
69460,-0.646,-0.85,-9.409,-0.004,0.012,-0.006
69563,-0.642,-0.85,-9.409,-0.005,0.011,-0.006
69666,-0.642,-0.843,-9.395,-0.005,0.011,-0.005
69769,-0.644,-0.838,-9.419,-0.005,0.011,-0.005
69872,-0.634,-0.848,-9.402,-0.005,0.011,-0.005
69975,-0.642,-0.845,-9.407,-0.004,0.011,-0.005
70078,-0.644,-0.85,-9.419,-0.005,0.012,-0.006
70181,-0.646,-0.848,-9.409,-0.005,0.011,-0.006
70284,-0.634,-0.85,-9.407,-0.005,0.011,-0.006
70387,-0.632,-0.845,-9.431,-0.004,0.011,-0.005
70490,-0.634,-0.852,-9.412,-0.005,0.012,-0.006
70593,-0.644,-0.845,-9.416,-0.005,0.012,-0.005
70696,-0.646,-0.843,-9.402,-0.005,0.011,-0.006
70799,-0.637,-0.845,-9.402,-0.005,0.011,-0.006
70902,-0.639,-0.845,-9.424,-0.004,0.012,-0.006
71005,-0.639,-0.845,-9.416,-0.005,0.012,-0.006
71108,-0.632,-0.843,-9.414,-0.004,0.011,-0.006
71211,-0.637,-0.85,-9.421,-0.004,0.011,-0.006
71314,-0.642,-0.855,-9.409,-0.005,0.011,-0.005
71417,-0.637,-0.843,-9.402,-0.005,0.011,-0.006
71520,-0.639,-0.848,-9.409,-0.005,0.011,-0.005
71623,-0.646,-0.838,-9.409,-0.005,0.011,-0.005
71726,-0.642,-0.843,-9.395,-0.005,0.011,-0.006
71829,-0.639,-0.843,-9.412,-0.005,0.011,-0.006
71932,-0.642,-0.845,-9.424,-0.004,0.011,-0.005
72035,-0.651,-0.85,-9.414,-0.005,0.012,-0.005
72138,-0.639,-0.855,-9.421,-0.005,0.012,-0.006
72241,-0.642,-0.857,-9.409,-0.005,0.012,-0.005
72344,-0.639,-0.86,-9.416,-0.005,0.011,-0.005
72447,-0.651,-0.85,-9.4,-0.004,0.011,-0.005
72550,-0.634,-0.843,-9.419,-0.004,0.011,-0.006
72653,-0.637,-0.85,-9.424,-0.005,0.012,-0.006
72756,-0.639,-0.845,-9.404,-0.004,0.011,-0.005
72859,-0.644,-0.845,-9.426,-0.005,0.011,-0.006
72962,-0.642,-0.852,-9.412,-0.004,0.011,-0.005
73065,-0.642,-0.838,-9.397,-0.005,0.011,-0.006
73168,-0.632,-0.843,-9.416,-0.004,0.011,-0.006
73271,-0.646,-0.855,-9.421,-0.005,0.011,-0.005
73374,-0.627,-0.845,-9.397,-0.005,0.012,-0.005
73477,-0.642,-0.843,-9.416,-0.004,0.011,-0.005
73580,-0.637,-0.838,-9.419,-0.004,0.012,-0.005
73683,-0.642,-0.85,-9.414,-0.005,0.012,-0.006
73786,-0.646,-0.843,-9.412,-0.004,0.012,-0.006
73889,-0.637,-0.838,-9.409,-0.005,0.012,-0.005
73992,-0.634,-0.843,-9.404,-0.005,0.011,-0.006
74095,-0.639,-0.85,-9.404,-0.005,0.011,-0.006
74198,-0.634,-0.833,-9.424,-0.004,0.012,-0.005
74301,-0.634,-0.848,-9.402,-0.004,0.012,-0.006
74404,-0.644,-0.852,-9.416,-0.005,0.011,-0.005
74507,-0.642,-0.838,-9.412,-0.005,0.012,-0.006
74610,-0.649,-0.845,-9.402,-0.005,0.011,-0.005
74713,-0.634,-0.843,-9.421,-0.005,0.012,-0.006
74816,-0.642,-0.845,-9.409,-0.005,0.011,-0.005
74919,-0.639,-0.843,-9.404,-0.005,0.011,-0.005
75022,-0.642,-0.855,-9.421,-0.004,0.011,-0.005
75125,-0.644,-0.852,-9.416,-0.005,0.011,-0.006
75228,-0.637,-0.845,-9.409,-0.005,0.011,-0.005
75331,-0.646,-0.852,-9.414,-0.005,0.012,-0.005
75434,-0.637,-0.843,-9.4,-0.004,0.011,-0.005
75537,-0.639,-0.85,-9.407,-0.005,0.012,-0.005
75640,-0.649,-0.843,-9.412,-0.005,0.011,-0.006
75743,-0.642,-0.857,-9.416,-0.004,0.011,-0.006
75846,-0.642,-0.838,-9.397,-0.005,0.011,-0.006
75949,-0.63,-0.838,-9.421,-0.004,0.011,-0.006
76052,-0.642,-0.845,-9.416,-0.005,0.011,-0.005
76155,-0.646,-0.843,-9.419,-0.004,0.011,-0.006
76258,-0.644,-0.84,-9.409,-0.005,0.011,-0.005
76361,-0.646,-0.852,-9.412,-0.005,0.011,-0.005
76464,-0.632,-0.843,-9.414,-0.004,0.012,-0.005
76567,-0.632,-0.848,-9.409,-0.005,0.012,-0.006
76670,-0.637,-0.848,-9.412,-0.004,0.012,-0.005
76773,-0.646,-0.836,-9.4,-0.005,0.012,-0.005
76876,-0.646,-0.852,-9.407,-0.005,0.011,-0.005
76979,-0.644,-0.848,-9.412,-0.005,0.012,-0.006
77082,-0.646,-0.852,-9.395,-0.004,0.011,-0.006
77185,-0.651,-0.836,-9.426,-0.004,0.011,-0.006
77288,-0.627,-0.843,-9.414,-0.005,0.012,-0.005
77391,-0.634,-0.852,-9.395,-0.004,0.012,-0.006
77494,-0.642,-0.843,-9.412,-0.005,0.011,-0.005
77597,-0.639,-0.848,-9.416,-0.005,0.012,-0.006
77700,-0.642,-0.85,-9.412,-0.004,0.012,-0.005
77803,-0.639,-0.84,-9.412,-0.004,0.012,-0.005
77906,-0.646,-0.845,-9.409,-0.005,0.012,-0.006
78009,-0.637,-0.848,-9.416,-0.005,0.011,-0.005
78112,-0.639,-0.84,-9.412,-0.005,0.012,-0.005
78215,-0.649,-0.843,-9.412,-0.004,0.011,-0.005
78318,-0.644,-0.84,-9.404,-0.005,0.011,-0.006
78421,-0.644,-0.85,-9.419,-0.005,0.011,-0.005
78524,-0.639,-0.848,-9.402,-0.004,0.012,-0.005
78627,-0.632,-0.843,-9.404,-0.005,0.011,-0.005
78730,-0.632,-0.845,-9.407,-0.005,0.012,-0.005
78833,-0.63,-0.845,-9.416,-0.005,0.012,-0.005
78936,-0.642,-0.838,-9.4,-0.005,0.012,-0.005
79039,-0.639,-0.843,-9.426,-0.005,0.011,-0.006
79142,-0.644,-0.85,-9.407,-0.005,0.012,-0.005
79245,-0.642,-0.848,-9.402,-0.005,0.012,-0.005
79348,-0.639,-0.838,-9.419,-0.005,0.011,-0.005
79451,-0.644,-0.843,-9.404,-0.005,0.011,-0.005
79554,-0.651,-0.84,-9.414,-0.005,0.011,-0.006
79657,-0.646,-0.843,-9.412,-0.004,0.011,-0.006
79760,-0.644,-0.86,-9.416,-0.005,0.011,-0.006
79863,-0.646,-0.843,-9.421,-0.004,0.012,-0.006
79966,-0.646,-0.843,-9.407,-0.004,0.012,-0.005
80069,-0.644,-0.838,-9.404,-0.005,0.011,-0.006
80172,-0.637,-0.84,-9.421,-0.005,0.012,-0.005
80275,-0.642,-0.84,-9.421,-0.005,0.012,-0.005
80378,-0.642,-0.843,-9.414,-0.005,0.011,-0.006
80481,-0.642,-0.843,-9.397,-0.005,0.012,-0.006
80584,-0.637,-0.852,-9.414,-0.005,0.012,-0.006
80687,-0.634,-0.833,-9.421,-0.004,0.012,-0.005
80790,-0.639,-0.852,-9.421,-0.005,0.012,-0.006
80893,-0.646,-0.838,-9.402,-0.005,0.011,-0.006
80996,-0.651,-0.838,-9.412,-0.005,0.011,-0.006
81099,-0.642,-0.852,-9.407,-0.004,0.011,-0.006
81202,-0.646,-0.84,-9.404,-0.005,0.012,-0.005
81305,-0.637,-0.85,-9.412,-0.005,0.012,-0.005
81408,-0.649,-0.84,-9.426,-0.005,0.012,-0.005
81511,-0.646,-0.845,-9.419,-0.005,0.011,-0.006
81614,-0.646,-0.843,-9.407,-0.005,0.012,-0.006
81717,-0.63,-0.84,-9.395,-0.004,0.012,-0.005
81820,-0.644,-0.845,-9.409,-0.005,0.011,-0.005
81923,-0.646,-0.852,-9.402,-0.005,0.011,-0.006
82026,-0.639,-0.843,-9.409,-0.005,0.011,-0.006
82129,-0.637,-0.852,-9.412,-0.004,0.012,-0.006
82232,-0.644,-0.848,-9.421,-0.004,0.012,-0.006
82335,-0.644,-0.831,-9.412,-0.004,0.011,-0.005
82438,-0.644,-0.848,-9.412,-0.005,0.012,-0.006
82541,-0.642,-0.843,-9.392,-0.004,0.011,-0.006
82644,-0.627,-0.85,-9.397,-0.005,0.012,-0.006
82747,-0.644,-0.85,-9.416,-0.005,0.012,-0.006
82850,-0.646,-0.845,-9.407,-0.005,0.012,-0.005
82953,-0.639,-0.843,-9.414,-0.004,0.011,-0.006
83056,-0.637,-0.855,-9.412,-0.005,0.011,-0.005
83159,-0.644,-0.836,-9.409,-0.004,0.011,-0.005
83262,-0.646,-0.855,-9.402,-0.004,0.012,-0.006
83365,-0.637,-0.85,-9.397,-0.004,0.012,-0.005
83468,-0.649,-0.848,-9.416,-0.005,0.012,-0.005
83571,-0.639,-0.843,-9.407,-0.004,0.011,-0.006
83674,-0.632,-0.836,-9.404,-0.005,0.012,-0.006
83777,-0.627,-0.852,-9.416,-0.005,0.012,-0.006
83880,-0.644,-0.86,-9.409,-0.005,0.011,-0.005
83983,-0.649,-0.848,-9.414,-0.005,0.011,-0.005
84086,-0.656,-0.843,-9.409,-0.005,0.012,-0.006
84189,-0.649,-0.845,-9.407,-0.005,0.012,-0.006
84292,-0.642,-0.828,-9.4,-0.004,0.012,-0.005
84395,-0.654,-0.857,-9.421,-0.004,0.011,-0.005
84498,-0.637,-0.843,-9.407,-0.005,0.011,-0.005
84601,-0.649,-0.85,-9.404,-0.005,0.012,-0.005
84704,-0.651,-0.852,-9.426,-0.005,0.011,-0.005
84807,-0.637,-0.848,-9.412,-0.005,0.011,-0.005
84910,-0.642,-0.845,-9.414,-0.005,0.011,-0.006
85013,-0.639,-0.843,-9.416,-0.005,0.011,-0.005
85116,-0.639,-0.838,-9.404,-0.005,0.012,-0.005
85219,-0.637,-0.85,-9.412,-0.005,0.011,-0.006
85322,-0.634,-0.848,-9.419,-0.005,0.012,-0.005
85425,-0.642,-0.845,-9.414,-0.005,0.012,-0.006
85528,-0.644,-0.85,-9.412,-0.004,0.011,-0.006
85631,-0.639,-0.84,-9.412,-0.005,0.012,-0.005
85734,-0.639,-0.845,-9.414,-0.004,0.011,-0.006
85837,-0.651,-0.848,-9.402,-0.005,0.011,-0.005
85940,-0.632,-0.852,-9.404,-0.004,0.011,-0.006
86043,-0.627,-0.85,-9.397,-0.005,0.011,-0.006
86146,-0.637,-0.845,-9.412,-0.005,0.012,-0.006
86249,-0.642,-0.845,-9.412,-0.005,0.012,-0.006
86352,-0.637,-0.852,-9.416,-0.005,0.011,-0.006
86455,-0.634,-0.86,-9.39,-0.005,0.011,-0.006
86558,-0.639,-0.84,-9.409,-0.005,0.011,-0.006
86661,-0.637,-0.857,-9.402,-0.005,0.012,-0.006
86764,-0.642,-0.84,-9.414,-0.005,0.011,-0.006
86867,-0.637,-0.845,-9.412,-0.005,0.012,-0.006
86970,-0.637,-0.848,-9.397,-0.005,0.011,-0.006
87073,-0.634,-0.845,-9.414,-0.004,0.012,-0.005
87176,-0.649,-0.84,-9.412,-0.004,0.012,-0.006
87279,-0.642,-0.848,-9.412,-0.005,0.011,-0.006
87382,-0.646,-0.836,-9.4,-0.005,0.012,-0.005
87485,-0.632,-0.84,-9.397,-0.005,0.012,-0.006
87588,-0.644,-0.845,-9.416,-0.005,0.012,-0.005
87691,-0.654,-0.845,-9.412,-0.005,0.012,-0.006
87794,-0.646,-0.85,-9.409,-0.004,0.011,-0.006
87897,-0.634,-0.845,-9.402,-0.005,0.012,-0.006
88000,-0.644,-0.845,-9.409,-0.005,0.012,-0.006
88103,-0.651,-0.845,-9.419,-0.005,0.011,-0.005
88206,-0.642,-0.836,-9.404,-0.005,0.012,-0.005
88309,-0.637,-0.85,-9.416,-0.004,0.011,-0.005
88412,-0.637,-0.852,-9.414,-0.005,0.012,-0.006
88515,-0.634,-0.84,-9.407,-0.005,0.012,-0.005
88618,-0.644,-0.848,-9.416,-0.004,0.012,-0.006
88721,-0.63,-0.84,-9.407,-0.004,0.011,-0.005
88824,-0.646,-0.843,-9.416,-0.004,0.011,-0.005
88927,-0.642,-0.845,-9.416,-0.005,0.012,-0.005
89030,-0.642,-0.84,-9.409,-0.005,0.011,-0.006
89133,-0.644,-0.843,-9.412,-0.004,0.012,-0.006
89236,-0.639,-0.845,-9.414,-0.004,0.012,-0.005
89339,-0.649,-0.84,-9.407,-0.004,0.011,-0.005
89442,-0.642,-0.85,-9.402,-0.004,0.012,-0.006
89545,-0.642,-0.843,-9.421,-0.004,0.011,-0.006
89648,-0.634,-0.838,-9.414,-0.005,0.011,-0.006
89751,-0.632,-0.848,-9.416,-0.004,0.011,-0.006
89854,-0.642,-0.84,-9.414,-0.005,0.012,-0.005
89957,-0.651,-0.838,-9.424,-0.004,0.012,-0.005
90060,-0.634,-0.845,-9.416,-0.005,0.011,-0.006
90163,-0.644,-0.848,-9.407,-0.004,0.012,-0.005
90266,-0.642,-0.862,-9.419,-0.005,0.011,-0.006
90369,-0.642,-0.845,-9.419,-0.005,0.012,-0.006
90472,-0.646,-0.852,-9.416,-0.005,0.011,-0.006
90575,-0.646,-0.852,-9.402,-0.005,0.012,-0.006
90678,-0.637,-0.845,-9.404,-0.004,0.011,-0.005
90781,-0.644,-0.833,-9.419,-0.004,0.012,-0.005
90884,-0.644,-0.845,-9.404,-0.005,0.012,-0.006
90987,-0.644,-0.848,-9.409,-0.005,0.012,-0.005
91090,-0.644,-0.845,-9.421,-0.005,0.012,-0.006
91193,-0.644,-0.85,-9.416,-0.005,0.011,-0.005
91296,-0.644,-0.84,-9.428,-0.005,0.011,-0.005
91399,-0.646,-0.85,-9.409,-0.004,0.012,-0.005
91502,-0.646,-0.84,-9.412,-0.005,0.012,-0.005
91605,-0.654,-0.848,-9.419,-0.005,0.011,-0.005
91708,-0.658,-0.845,-9.416,-0.005,0.011,-0.005
91811,-0.637,-0.848,-9.414,-0.005,0.011,-0.005
91914,-0.651,-0.845,-9.395,-0.005,0.012,-0.005
92017,-0.639,-0.855,-9.424,-0.005,0.011,-0.005
92120,-0.632,-0.84,-9.397,-0.005,0.011,-0.005
92223,-0.642,-0.852,-9.412,-0.005,0.011,-0.006
92326,-0.646,-0.848,-9.421,-0.004,0.012,-0.005
92429,-0.644,-0.845,-9.426,-0.004,0.011,-0.005
92532,-0.646,-0.85,-9.421,-0.005,0.011,-0.005
92635,-0.644,-0.848,-9.404,-0.005,0.011,-0.005
92738,-0.632,-0.845,-9.412,-0.005,0.011,-0.006
92841,-0.644,-0.848,-9.421,-0.004,0.011,-0.006
92944,-0.642,-0.828,-9.404,-0.004,0.011,-0.005
93047,-0.642,-0.84,-9.404,-0.005,0.011,-0.006
93150,-0.639,-0.843,-9.402,-0.005,0.012,-0.005
93253,-0.644,-0.843,-9.416,-0.005,0.012,-0.006
93356,-0.642,-0.85,-9.421,-0.005,0.011,-0.006
93459,-0.646,-0.838,-9.397,-0.004,0.012,-0.005
93562,-0.646,-0.833,-9.412,-0.004,0.012,-0.006
93665,-0.642,-0.845,-9.414,-0.004,0.011,-0.006
93768,-0.637,-0.84,-9.402,-0.005,0.012,-0.005
93871,-0.646,-0.85,-9.4,-0.005,0.012,-0.005
93974,-0.644,-0.855,-9.412,-0.005,0.012,-0.005
94077,-0.644,-0.843,-9.412,-0.005,0.011,-0.005
94180,-0.649,-0.855,-9.412,-0.004,0.012,-0.005
94283,-0.651,-0.848,-9.412,-0.005,0.012,-0.005
94386,-0.646,-0.84,-9.404,-0.005,0.011,-0.006
94489,-0.644,-0.85,-9.426,-0.005,0.011,-0.005
94592,-0.634,-0.843,-9.414,-0.004,0.012,-0.005
94695,-0.644,-0.838,-9.409,-0.004,0.012,-0.006
94798,-0.649,-0.848,-9.421,-0.004,0.012,-0.005
94901,-0.646,-0.84,-9.402,-0.005,0.011,-0.005
95004,-0.634,-0.85,-9.402,-0.005,0.012,-0.005
95107,-0.644,-0.843,-9.409,-0.005,0.012,-0.006
95210,-0.637,-0.848,-9.402,-0.005,0.012,-0.006
95313,-0.646,-0.845,-9.404,-0.005,0.011,-0.005
95416,-0.642,-0.848,-9.416,-0.005,0.012,-0.005
95519,-0.639,-0.845,-9.416,-0.005,0.011,-0.005
95622,-0.642,-0.857,-9.421,-0.005,0.012,-0.005
95725,-0.649,-0.848,-9.407,-0.005,0.011,-0.005
95828,-0.644,-0.845,-9.424,-0.005,0.012,-0.006
95931,-0.646,-0.85,-9.416,-0.005,0.012,-0.005
96034,-0.644,-0.845,-9.416,-0.004,0.011,-0.006
96137,-0.639,-0.84,-9.414,-0.004,0.012,-0.005
96240,-0.637,-0.855,-9.416,-0.004,0.011,-0.005
96343,-0.639,-0.843,-9.404,-0.004,0.011,-0.005
96446,-0.634,-0.843,-9.409,-0.004,0.012,-0.006
96549,-0.646,-0.85,-9.414,-0.005,0.011,-0.005
96652,-0.634,-0.84,-9.407,-0.005,0.012,-0.006
96755,-0.642,-0.843,-9.421,-0.004,0.011,-0.006
96858,-0.644,-0.855,-9.407,-0.005,0.011,-0.005
96961,-0.639,-0.843,-9.404,-0.004,0.011,-0.006
97064,-0.632,-0.86,-9.412,-0.005,0.011,-0.005
97167,-0.644,-0.848,-9.421,-0.005,0.011,-0.005
97270,-0.639,-0.855,-9.421,-0.005,0.011,-0.006
97373,-0.649,-0.85,-9.426,-0.005,0.011,-0.006
97476,-0.646,-0.857,-9.414,-0.005,0.011,-0.005
97579,-0.632,-0.85,-9.409,-0.004,0.012,-0.006
97682,-0.642,-0.845,-9.421,-0.005,0.011,-0.006
97785,-0.639,-0.843,-9.419,-0.005,0.011,-0.006
97888,-0.649,-0.85,-9.409,-0.004,0.011,-0.005
97991,-0.649,-0.843,-9.407,-0.005,0.011,-0.005
98094,-0.637,-0.84,-9.402,-0.005,0.012,-0.006
98197,-0.637,-0.85,-9.416,-0.005,0.011,-0.005
98300,-0.632,-0.838,-9.412,-0.004,0.012,-0.006
98403,-0.639,-0.843,-9.402,-0.005,0.012,-0.006
98506,-0.642,-0.848,-9.416,-0.005,0.012,-0.005
98609,-0.654,-0.845,-9.419,-0.005,0.011,-0.006
98712,-0.646,-0.85,-9.412,-0.005,0.012,-0.005
98815,-0.634,-0.843,-9.409,-0.005,0.011,-0.005
98918,-0.637,-0.843,-9.414,-0.005,0.012,-0.005
99021,-0.642,-0.84,-9.412,-0.005,0.011,-0.005
99124,-0.627,-0.848,-9.419,-0.005,0.011,-0.006
99227,-0.642,-0.855,-9.414,-0.004,0.011,-0.005
99330,-0.625,-0.848,-9.414,-0.004,0.011,-0.005
99433,-0.639,-0.843,-9.404,-0.004,0.011,-0.005
99536,-0.639,-0.845,-9.412,-0.005,0.011,-0.006
99639,-0.642,-0.848,-9.424,-0.005,0.011,-0.005
99742,-0.634,-0.843,-9.412,-0.005,0.012,-0.005
99845,-0.63,-0.852,-9.421,-0.004,0.011,-0.006
99948,-0.644,-0.843,-9.409,-0.005,0.011,-0.005
100051,-0.642,-0.85,-9.414,-0.005,0.011,-0.006
100154,-0.642,-0.855,-9.416,-0.005,0.012,-0.006
100257,-0.632,-0.843,-9.404,-0.005,0.011,-0.006
100360,-0.637,-0.855,-9.414,-0.005,0.012,-0.006
100463,-0.634,-0.852,-9.414,-0.004,0.012,-0.005
100566,-0.644,-0.836,-9.421,-0.005,0.012,-0.005
100669,-0.634,-0.84,-9.402,-0.005,0.011,-0.006
100772,-0.642,-0.85,-9.412,-0.005,0.011,-0.005
100875,-0.637,-0.84,-9.421,-0.004,0.012,-0.006
100978,-0.642,-0.85,-9.407,-0.004,0.012,-0.006
101081,-0.632,-0.838,-9.409,-0.005,0.011,-0.006
101184,-0.642,-0.85,-9.419,-0.005,0.011,-0.005
101287,-0.632,-0.857,-9.409,-0.005,0.011,-0.005
101390,-0.634,-0.848,-9.407,-0.005,0.012,-0.005
101493,-0.644,-0.848,-9.416,-0.005,0.011,-0.005
101596,-0.649,-0.857,-9.421,-0.005,0.011,-0.005
101699,-0.632,-0.848,-9.416,-0.005,0.012,-0.006
101802,-0.639,-0.843,-9.424,-0.004,0.012,-0.006
101905,-0.639,-0.836,-9.424,-0.005,0.012,-0.005
102008,-0.63,-0.845,-9.414,-0.005,0.011,-0.006
102111,-0.634,-0.85,-9.397,-0.005,0.011,-0.005
102214,-0.642,-0.843,-9.404,-0.005,0.011,-0.005
102317,-0.642,-0.85,-9.414,-0.005,0.011,-0.005
102420,-0.637,-0.85,-9.426,-0.005,0.011,-0.005
102523,-0.637,-0.84,-9.414,-0.005,0.011,-0.005
102626,-0.642,-0.848,-9.426,-0.005,0.012,-0.006
102729,-0.649,-0.838,-9.419,-0.005,0.011,-0.005
102832,-0.644,-0.833,-9.416,-0.005,0.012,-0.006
102935,-0.634,-0.857,-9.412,-0.005,0.011,-0.006
103038,-0.644,-0.855,-9.409,-0.005,0.011,-0.005
103141,-0.646,-0.843,-9.404,-0.004,0.012,-0.005
103244,-0.642,-0.848,-9.414,-0.005,0.011,-0.005
103347,-0.639,-0.848,-9.402,-0.005,0.012,-0.006
103450,-0.632,-0.845,-9.414,-0.005,0.011,-0.006
103553,-0.642,-0.845,-9.419,-0.005,0.011,-0.006
103656,-0.646,-0.848,-9.402,-0.005,0.011,-0.006
103759,-0.639,-0.845,-9.431,-0.005,0.012,-0.005
103862,-0.642,-0.84,-9.421,-0.005,0.011,-0.005
103965,-0.634,-0.843,-9.419,-0.004,0.012,-0.005
104068,-0.644,-0.852,-9.404,-0.005,0.011,-0.005
104171,-0.646,-0.843,-9.414,-0.005,0.012,-0.005
104274,-0.639,-0.852,-9.424,-0.005,0.012,-0.006
104377,-0.637,-0.845,-9.414,-0.004,0.012,-0.006
104480,-0.639,-0.85,-9.416,-0.005,0.012,-0.006
104583,-0.649,-0.848,-9.412,-0.004,0.011,-0.005
104686,-0.644,-0.845,-9.397,-0.005,0.012,-0.005
104789,-0.646,-0.845,-9.419,-0.005,0.011,-0.005
104892,-0.632,-0.845,-9.428,-0.004,0.011,-0.006
104995,-0.642,-0.84,-9.409,-0.005,0.012,-0.006
105098,-0.637,-0.848,-9.416,-0.004,0.011,-0.006
105201,-0.639,-0.843,-9.421,-0.005,0.012,-0.005
105304,-0.644,-0.836,-9.407,-0.005,0.011,-0.006
105407,-0.63,-0.85,-9.412,-0.005,0.011,-0.005
105510,-0.632,-0.845,-9.421,-0.005,0.011,-0.005
105613,-0.627,-0.836,-9.414,-0.005,0.012,-0.005
105716,-0.632,-0.845,-9.419,-0.005,0.011,-0.006
105819,-0.651,-0.833,-9.395,-0.005,0.011,-0.005
105922,-0.646,-0.838,-9.407,-0.004,0.011,-0.006
106025,-0.642,-0.852,-9.407,-0.005,0.012,-0.006
106128,-0.637,-0.845,-9.4,-0.005,0.011,-0.005
106231,-0.642,-0.84,-9.424,-0.005,0.011,-0.006
106334,-0.644,-0.845,-9.419,-0.005,0.011,-0.005
106437,-0.637,-0.848,-9.395,-0.005,0.011,-0.006
106540,-0.644,-0.855,-9.402,-0.005,0.011,-0.006
106643,-0.637,-0.855,-9.409,-0.005,0.012,-0.005
106746,-0.646,-0.843,-9.419,-0.005,0.012,-0.005
106849,-0.649,-0.843,-9.404,-0.004,0.012,-0.005
106952,-0.634,-0.838,-9.407,-0.005,0.012,-0.006
107055,-0.637,-0.84,-9.409,-0.004,0.011,-0.006
107158,-0.637,-0.85,-9.414,-0.005,0.011,-0.005
107261,-0.634,-0.852,-9.409,-0.005,0.011,-0.006
107364,-0.646,-0.852,-9.412,-0.005,0.011,-0.006
107467,-0.642,-0.843,-9.412,-0.005,0.011,-0.006
107570,-0.639,-0.85,-9.404,-0.004,0.012,-0.006
107673,-0.632,-0.848,-9.424,-0.005,0.012,-0.005
107776,-0.637,-0.84,-9.412,-0.005,0.012,-0.006
107879,-0.642,-0.836,-9.416,-0.005,0.012,-0.005
107982,-0.634,-0.85,-9.404,-0.004,0.012,-0.006
108085,-0.632,-0.843,-9.414,-0.005,0.011,-0.005
108188,-0.642,-0.857,-9.404,-0.005,0.012,-0.005
108291,-0.639,-0.852,-9.409,-0.005,0.012,-0.006
108394,-0.646,-0.833,-9.414,-0.005,0.011,-0.005
108497,-0.637,-0.845,-9.404,-0.005,0.011,-0.006
108600,-0.646,-0.855,-9.407,-0.005,0.012,-0.005
108703,-0.642,-0.843,-9.424,-0.005,0.011,-0.006
108806,-0.632,-0.845,-9.407,-0.005,0.012,-0.006
108909,-0.639,-0.838,-9.414,-0.005,0.012,-0.005
109012,-0.646,-0.84,-9.421,-0.005,0.011,-0.006
109115,-0.642,-0.852,-9.407,-0.004,0.011,-0.006
109218,-0.642,-0.836,-9.414,-0.005,0.012,-0.005
109321,-0.634,-0.843,-9.428,-0.005,0.012,-0.006
109424,-0.637,-0.838,-9.426,-0.005,0.012,-0.006
109527,-0.646,-0.838,-9.424,-0.005,0.012,-0.006
109630,-0.634,-0.85,-9.421,-0.005,0.012,-0.005
109733,-0.646,-0.855,-9.419,-0.005,0.012,-0.005
109836,-0.644,-0.84,-9.419,-0.005,0.011,-0.006
109939,-0.634,-0.852,-9.412,-0.004,0.012,-0.006
110042,-0.644,-0.848,-9.414,-0.005,0.012,-0.006
110145,-0.639,-0.843,-9.402,-0.005,0.012,-0.006
110248,-0.639,-0.848,-9.402,-0.005,0.012,-0.005
110351,-0.634,-0.845,-9.428,-0.005,0.011,-0.005
110454,-0.644,-0.852,-9.412,-0.005,0.011,-0.006
110557,-0.649,-0.843,-9.409,-0.005,0.012,-0.006
110660,-0.642,-0.848,-9.397,-0.005,0.012,-0.006
110763,-0.634,-0.845,-9.412,-0.005,0.011,-0.006
110866,-0.639,-0.843,-9.419,-0.004,0.012,-0.005
110969,-0.637,-0.848,-9.397,-0.005,0.011,-0.006
111072,-0.634,-0.852,-9.414,-0.005,0.011,-0.006
111175,-0.637,-0.85,-9.414,-0.005,0.011,-0.005
111278,-0.632,-0.843,-9.412,-0.005,0.011,-0.006
111381,-0.642,-0.855,-9.428,-0.004,0.011,-0.006
111484,-0.649,-0.838,-9.419,-0.005,0.012,-0.005
111587,-0.634,-0.845,-9.412,-0.004,0.011,-0.005
111690,-0.642,-0.836,-9.404,-0.004,0.012,-0.005
111793,-0.644,-0.85,-9.407,-0.005,0.011,-0.005
111896,-0.642,-0.843,-9.407,-0.004,0.011,-0.005
111999,-0.639,-0.843,-9.412,-0.005,0.011,-0.006
112102,-0.639,-0.848,-9.407,-0.004,0.011,-0.006
112205,-0.632,-0.852,-9.412,-0.004,0.011,-0.005
112308,-0.637,-0.845,-9.424,-0.005,0.011,-0.006
112411,-0.642,-0.857,-9.431,-0.005,0.011,-0.005
112514,-0.644,-0.845,-9.409,-0.005,0.011,-0.005
112617,-0.646,-0.855,-9.404,-0.005,0.012,-0.005
112720,-0.644,-0.852,-9.419,-0.004,0.012,-0.006
112823,-0.644,-0.843,-9.407,-0.005,0.011,-0.006
112926,-0.649,-0.838,-9.424,-0.005,0.011,-0.006
113029,-0.634,-0.845,-9.431,-0.005,0.011,-0.006
113132,-0.649,-0.84,-9.424,-0.005,0.012,-0.005
113235,-0.649,-0.845,-9.421,-0.005,0.012,-0.005
113338,-0.649,-0.84,-9.426,-0.005,0.011,-0.005
113441,-0.646,-0.838,-9.424,-0.005,0.011,-0.005
113544,-0.649,-0.857,-9.409,-0.004,0.012,-0.005
113647,-0.634,-0.845,-9.426,-0.005,0.011,-0.006
113750,-0.644,-0.845,-9.416,-0.005,0.011,-0.005
113853,-0.644,-0.85,-9.414,-0.005,0.011,-0.006
113956,-0.644,-0.84,-9.416,-0.004,0.011,-0.005
114059,-0.642,-0.852,-9.424,-0.005,0.011,-0.005
114162,-0.649,-0.86,-9.404,-0.005,0.011,-0.005
114265,-0.646,-0.845,-9.414,-0.004,0.011,-0.006
114368,-0.646,-0.855,-9.424,-0.004,0.012,-0.006
114471,-0.639,-0.845,-9.414,-0.005,0.012,-0.005
114574,-0.642,-0.845,-9.419,-0.005,0.011,-0.005
114677,-0.639,-0.85,-9.416,-0.005,0.011,-0.005
114780,-0.639,-0.857,-9.414,-0.004,0.012,-0.005
114883,-0.646,-0.84,-9.419,-0.005,0.012,-0.005
114986,-0.634,-0.852,-9.428,-0.005,0.011,-0.006
115089,-0.639,-0.845,-9.407,-0.004,0.011,-0.005
115192,-0.649,-0.848,-9.416,-0.005,0.011,-0.006
115295,-0.644,-0.838,-9.421,-0.005,0.011,-0.005
115398,-0.642,-0.833,-9.414,-0.005,0.011,-0.005
115501,-0.642,-0.838,-9.414,-0.005,0.011,-0.006
115604,-0.644,-0.843,-9.402,-0.005,0.011,-0.006
115707,-0.642,-0.852,-9.392,-0.005,0.012,-0.006
115810,-0.644,-0.857,-9.421,-0.005,0.011,-0.005
115913,-0.637,-0.848,-9.416,-0.004,0.011,-0.005
116016,-0.637,-0.85,-9.412,-0.004,0.011,-0.006
116119,-0.642,-0.852,-9.426,-0.005,0.011,-0.006
116222,-0.649,-0.84,-9.416,-0.004,0.012,-0.005
116325,-0.637,-0.848,-9.4,-0.004,0.012,-0.005
116428,-0.654,-0.848,-9.409,-0.004,0.012,-0.005
116531,-0.634,-0.843,-9.414,-0.005,0.012,-0.006
116634,-0.639,-0.836,-9.421,-0.005,0.012,-0.006
116737,-0.646,-0.845,-9.419,-0.005,0.012,-0.006
116840,-0.634,-0.843,-9.409,-0.005,0.012,-0.005
116943,-0.646,-0.852,-9.412,-0.004,0.012,-0.006
117046,-0.644,-0.838,-9.412,-0.004,0.012,-0.005
117149,-0.644,-0.85,-9.426,-0.004,0.012,-0.006
117252,-0.632,-0.848,-9.412,-0.005,0.011,-0.006
117355,-0.649,-0.838,-9.414,-0.005,0.011,-0.006
117458,-0.644,-0.845,-9.402,-0.005,0.011,-0.005
117561,-0.639,-0.845,-9.397,-0.005,0.012,-0.005
117664,-0.642,-0.843,-9.421,-0.004,0.011,-0.005
117767,-0.642,-0.85,-9.412,-0.005,0.012,-0.005
117870,-0.651,-0.848,-9.404,-0.005,0.011,-0.005
117973,-0.646,-0.838,-9.404,-0.005,0.011,-0.006
118076,-0.642,-0.848,-9.409,-0.005,0.012,-0.005
118179,-0.646,-0.852,-9.412,-0.004,0.011,-0.005
118282,-0.642,-0.848,-9.397,-0.005,0.012,-0.006
118385,-0.639,-0.857,-9.412,-0.004,0.011,-0.005
118488,-0.639,-0.836,-9.419,-0.005,0.011,-0.006
118591,-0.634,-0.843,-9.409,-0.004,0.011,-0.005
118694,-0.632,-0.845,-9.407,-0.005,0.012,-0.006
118797,-0.637,-0.85,-9.414,-0.005,0.012,-0.005
118900,-0.632,-0.852,-9.416,-0.005,0.011,-0.006
119003,-0.639,-0.845,-9.419,-0.005,0.011,-0.005
119106,-0.634,-0.84,-9.4,-0.005,0.012,-0.006
119209,-0.63,-0.85,-9.409,-0.005,0.012,-0.005
119312,-0.639,-0.838,-9.426,-0.004,0.011,-0.006
119415,-0.642,-0.848,-9.383,-0.004,0.011,-0.005
119518,-0.644,-0.843,-9.414,-0.005,0.011,-0.005
119621,-0.639,-0.84,-9.426,-0.004,0.011,-0.005
119724,-0.642,-0.852,-9.409,-0.005,0.012,-0.005
119827,-0.634,-0.843,-9.412,-0.005,0.011,-0.005
119930,-0.642,-0.84,-9.412,-0.005,0.012,-0.006
120033,-0.634,-0.845,-9.412,-0.005,0.012,-0.006
120136,-0.639,-0.845,-9.414,-0.004,0.012,-0.005
120239,-0.634,-0.845,-9.409,-0.005,0.011,-0.005
120342,-0.642,-0.85,-9.412,-0.004,0.011,-0.005
120445,-0.634,-0.843,-9.419,-0.005,0.012,-0.005
120548,-0.63,-0.845,-9.412,-0.005,0.012,-0.006
120651,-0.634,-0.848,-9.428,-0.005,0.011,-0.005
120754,-0.642,-0.84,-9.404,-0.005,0.012,-0.006
120857,-0.644,-0.852,-9.412,-0.005,0.011,-0.005
120960,-0.642,-0.843,-9.397,-0.005,0.011,-0.006
121063,-0.642,-0.838,-9.385,-0.004,0.011,-0.006
121166,-0.637,-0.852,-9.414,-0.005,0.011,-0.005
121269,-0.634,-0.848,-9.416,-0.004,0.011,-0.006
121372,-0.637,-0.85,-9.428,-0.005,0.011,-0.006
121475,-0.644,-0.848,-9.409,-0.004,0.012,-0.006
121578,-0.637,-0.84,-9.424,-0.005,0.011,-0.006
121681,-0.639,-0.843,-9.4,-0.004,0.011,-0.006
121784,-0.658,-0.845,-9.407,-0.005,0.011,-0.005
121887,-0.642,-0.848,-9.409,-0.005,0.011,-0.005
121990,-0.639,-0.845,-9.416,-0.004,0.011,-0.005
122093,-0.639,-0.845,-9.438,-0.005,0.011,-0.005
122196,-0.634,-0.831,-9.419,-0.005,0.011,-0.006
122299,-0.632,-0.855,-9.407,-0.004,0.011,-0.006
122402,-0.639,-0.843,-9.402,-0.004,0.012,-0.005
122505,-0.639,-0.845,-9.409,-0.004,0.011,-0.005
122608,-0.639,-0.855,-9.412,-0.004,0.011,-0.005
122711,-0.634,-0.843,-9.407,-0.005,0.011,-0.005
122814,-0.642,-0.848,-9.416,-0.004,0.011,-0.005
122917,-0.646,-0.848,-9.407,-0.005,0.011,-0.006
123020,-0.644,-0.838,-9.407,-0.004,0.012,-0.005
123123,-0.634,-0.852,-9.428,-0.005,0.012,-0.005
123226,-0.637,-0.852,-9.414,-0.005,0.012,-0.005
123329,-0.634,-0.845,-9.416,-0.004,0.012,-0.006
123432,-0.637,-0.845,-9.397,-0.005,0.012,-0.006
123535,-0.634,-0.843,-9.409,-0.005,0.012,-0.005
123638,-0.639,-0.845,-9.409,-0.004,0.012,-0.006
123741,-0.634,-0.845,-9.412,-0.005,0.012,-0.006
123844,-0.637,-0.848,-9.407,-0.005,0.012,-0.006
123947,-0.642,-0.84,-9.414,-0.005,0.011,-0.005
124050,-0.646,-0.836,-9.409,-0.005,0.011,-0.005
124153,-0.644,-0.845,-9.421,-0.005,0.011,-0.005
124256,-0.642,-0.848,-9.426,-0.005,0.011,-0.006
124359,-0.646,-0.833,-9.409,-0.005,0.012,-0.006
124462,-0.627,-0.845,-9.428,-0.005,0.011,-0.006
124565,-0.634,-0.848,-9.395,-0.005,0.012,-0.005
124668,-0.642,-0.845,-9.416,-0.005,0.011,-0.005
124771,-0.646,-0.848,-9.416,-0.005,0.011,-0.006
124874,-0.637,-0.855,-9.424,-0.004,0.011,-0.005
124977,-0.642,-0.843,-9.424,-0.004,0.012,-0.006
125080,-0.637,-0.85,-9.416,-0.005,0.012,-0.006
125183,-0.632,-0.852,-9.412,-0.005,0.012,-0.005
125286,-0.63,-0.848,-9.419,-0.004,0.012,-0.006
125389,-0.634,-0.852,-9.426,-0.005,0.012,-0.006
125492,-0.639,-0.836,-9.416,-0.005,0.012,-0.005
125595,-0.632,-0.845,-9.414,-0.005,0.012,-0.006
125698,-0.63,-0.85,-9.414,-0.005,0.012,-0.005
125801,-0.634,-0.84,-9.414,-0.005,0.011,-0.006
125904,-0.632,-0.85,-9.419,-0.005,0.011,-0.006
126007,-0.644,-0.85,-9.412,-0.004,0.011,-0.006
126110,-0.637,-0.84,-9.424,-0.005,0.011,-0.006
126213,-0.634,-0.843,-9.4,-0.004,0.011,-0.006
126316,-0.644,-0.848,-9.421,-0.004,0.012,-0.005
126419,-0.644,-0.852,-9.407,-0.005,0.011,-0.005
126522,-0.646,-0.848,-9.412,-0.005,0.012,-0.005
126625,-0.639,-0.838,-9.407,-0.005,0.011,-0.005
126728,-0.634,-0.843,-9.414,-0.005,0.011,-0.006
126831,-0.642,-0.857,-9.421,-0.005,0.011,-0.006
126934,-0.634,-0.843,-9.414,-0.005,0.012,-0.006
127037,-0.644,-0.857,-9.402,-0.005,0.011,-0.005
127140,-0.639,-0.845,-9.416,-0.005,0.012,-0.005
127243,-0.639,-0.836,-9.412,-0.005,0.011,-0.006
127346,-0.642,-0.857,-9.412,-0.005,0.011,-0.006
127449,-0.639,-0.843,-9.412,-0.005,0.011,-0.005
127552,-0.634,-0.848,-9.421,-0.004,0.011,-0.005
127655,-0.639,-0.848,-9.414,-0.005,0.011,-0.006
127758,-0.639,-0.843,-9.419,-0.005,0.011,-0.006
127861,-0.634,-0.848,-9.421,-0.005,0.012,-0.005
127964,-0.644,-0.848,-9.426,-0.005,0.012,-0.005
128067,-0.646,-0.848,-9.409,-0.004,0.011,-0.006
128170,-0.644,-0.852,-9.407,-0.004,0.011,-0.006
128273,-0.644,-0.838,-9.409,-0.005,0.012,-0.005
128376,-0.639,-0.845,-9.412,-0.005,0.011,-0.006
128479,-0.639,-0.848,-9.409,-0.005,0.011,-0.006
128582,-0.634,-0.85,-9.407,-0.005,0.012,-0.006
128685,-0.637,-0.848,-9.407,-0.005,0.012,-0.005
128788,-0.644,-0.848,-9.412,-0.004,0.011,-0.005
128891,-0.644,-0.848,-9.426,-0.005,0.011,-0.006
128994,-0.63,-0.855,-9.404,-0.005,0.012,-0.006
129097,-0.637,-0.848,-9.414,-0.005,0.012,-0.005
129200,-0.637,-0.838,-9.431,-0.005,0.012,-0.005
129303,-0.644,-0.85,-9.419,-0.005,0.011,-0.006
129406,-0.649,-0.84,-9.419,-0.005,0.012,-0.005
129509,-0.63,-0.843,-9.421,-0.005,0.012,-0.006
129612,-0.637,-0.84,-9.421,-0.005,0.012,-0.006
129715,-0.644,-0.85,-9.412,-0.005,0.011,-0.006
129818,-0.644,-0.838,-9.407,-0.004,0.011,-0.006
129921,-0.642,-0.838,-9.416,-0.005,0.011,-0.006
130024,-0.644,-0.843,-9.412,-0.005,0.012,-0.005
130127,-0.634,-0.857,-9.409,-0.005,0.012,-0.006
130230,-0.644,-0.845,-9.424,-0.005,0.012,-0.005
130333,-0.639,-0.845,-9.407,-0.005,0.012,-0.006
130436,-0.63,-0.85,-9.409,-0.005,0.012,-0.005
130539,-0.644,-0.843,-9.412,-0.004,0.011,-0.006
130642,-0.637,-0.84,-9.421,-0.005,0.011,-0.006
130745,-0.644,-0.848,-9.407,-0.005,0.011,-0.006
130848,-0.637,-0.838,-9.412,-0.005,0.012,-0.006
130951,-0.642,-0.848,-9.419,-0.005,0.012,-0.006
131054,-0.649,-0.838,-9.419,-0.004,0.011,-0.005
131157,-0.637,-0.848,-9.428,-0.005,0.012,-0.006
131260,-0.644,-0.84,-9.409,-0.005,0.012,-0.005
131363,-0.639,-0.845,-9.426,-0.005,0.011,-0.005
131466,-0.63,-0.843,-9.4,-0.005,0.012,-0.006
131569,-0.634,-0.85,-9.414,-0.005,0.012,-0.005
131672,-0.637,-0.843,-9.438,-0.004,0.012,-0.006
131775,-0.637,-0.838,-9.431,-0.004,0.012,-0.006
131878,-0.639,-0.845,-9.409,-0.005,0.012,-0.005
131981,-0.642,-0.848,-9.414,-0.005,0.012,-0.006
132084,-0.639,-0.845,-9.407,-0.005,0.012,-0.005
132187,-0.644,-0.838,-9.428,-0.005,0.011,-0.005
132290,-0.646,-0.845,-9.424,-0.005,0.012,-0.006
132393,-0.642,-0.84,-9.414,-0.005,0.011,-0.006
132496,-0.654,-0.848,-9.419,-0.005,0.012,-0.005
132599,-0.642,-0.838,-9.414,-0.005,0.012,-0.006
132702,-0.646,-0.843,-9.409,-0.004,0.012,-0.005
132805,-0.644,-0.84,-9.412,-0.004,0.011,-0.006
132908,-0.637,-0.838,-9.409,-0.004,0.011,-0.006
133011,-0.642,-0.84,-9.407,-0.005,0.012,-0.005
133114,-0.651,-0.848,-9.416,-0.004,0.012,-0.006
133217,-0.634,-0.848,-9.431,-0.005,0.012,-0.006
133320,-0.639,-0.845,-9.414,-0.005,0.012,-0.005
133423,-0.634,-0.855,-9.419,-0.005,0.012,-0.005
133526,-0.639,-0.845,-9.421,-0.005,0.012,-0.006
133629,-0.634,-0.848,-9.409,-0.004,0.012,-0.006
133732,-0.639,-0.845,-9.421,-0.005,0.011,-0.006
133835,-0.642,-0.852,-9.424,-0.004,0.011,-0.005
133938,-0.642,-0.848,-9.424,-0.005,0.011,-0.005
134041,-0.639,-0.848,-9.409,-0.005,0.012,-0.005
134144,-0.644,-0.838,-9.412,-0.005,0.011,-0.005
134247,-0.644,-0.84,-9.426,-0.004,0.012,-0.006
134350,-0.63,-0.852,-9.416,-0.005,0.012,-0.006
134453,-0.639,-0.838,-9.404,-0.004,0.011,-0.006
134556,-0.634,-0.848,-9.409,-0.005,0.012,-0.006
134659,-0.642,-0.843,-9.404,-0.005,0.012,-0.005
134762,-0.646,-0.85,-9.421,-0.005,0.012,-0.005
134865,-0.644,-0.845,-9.419,-0.005,0.011,-0.006
134968,-0.634,-0.838,-9.409,-0.005,0.011,-0.006
135071,-0.642,-0.845,-9.419,-0.005,0.011,-0.006
135174,-0.642,-0.86,-9.416,-0.005,0.011,-0.006
135277,-0.637,-0.843,-9.424,-0.005,0.011,-0.005
135380,-0.637,-0.845,-9.424,-0.005,0.012,-0.006
135483,-0.639,-0.845,-9.409,-0.004,0.012,-0.006
135586,-0.639,-0.843,-9.424,-0.005,0.012,-0.005
135689,-0.632,-0.843,-9.428,-0.005,0.011,-0.006
135792,-0.644,-0.843,-9.414,-0.005,0.012,-0.005
135895,-0.644,-0.845,-9.426,-0.005,0.011,-0.005
135998,-0.646,-0.852,-9.4,-0.005,0.012,-0.005
136101,-0.639,-0.836,-9.404,-0.005,0.012,-0.006
136204,-0.644,-0.845,-9.414,-0.005,0.012,-0.005
136307,-0.639,-0.85,-9.421,-0.004,0.011,-0.005
136410,-0.637,-0.848,-9.409,-0.005,0.011,-0.005
136513,-0.634,-0.85,-9.424,-0.004,0.011,-0.006
136616,-0.639,-0.84,-9.397,-0.005,0.011,-0.006
136719,-0.634,-0.843,-9.421,-0.005,0.011,-0.006
136822,-0.637,-0.848,-9.419,-0.005,0.012,-0.006
136925,-0.646,-0.845,-9.402,-0.005,0.011,-0.006
137028,-0.639,-0.843,-9.402,-0.005,0.011,-0.006
137131,-0.632,-0.85,-9.426,-0.005,0.011,-0.006
137234,-0.642,-0.836,-9.414,-0.005,0.011,-0.005
137337,-0.63,-0.845,-9.407,-0.004,0.011,-0.005
137440,-0.639,-0.836,-9.402,-0.004,0.012,-0.005
137543,-0.634,-0.836,-9.414,-0.005,0.011,-0.005
137646,-0.637,-0.843,-9.414,-0.004,0.011,-0.005
137749,-0.639,-0.843,-9.424,-0.005,0.011,-0.006
137852,-0.63,-0.836,-9.414,-0.005,0.012,-0.005
137955,-0.642,-0.848,-9.431,-0.005,0.011,-0.006
138058,-0.646,-0.845,-9.421,-0.005,0.011,-0.006
138161,-0.642,-0.843,-9.404,-0.005,0.011,-0.006
138264,-0.637,-0.845,-9.419,-0.004,0.011,-0.005
138367,-0.649,-0.84,-9.424,-0.005,0.011,-0.006
138470,-0.644,-0.852,-9.431,-0.005,0.011,-0.005
138573,-0.642,-0.838,-9.407,-0.004,0.012,-0.005
138676,-0.644,-0.833,-9.414,-0.005,0.012,-0.006
138779,-0.634,-0.843,-9.412,-0.005,0.012,-0.006
138882,-0.642,-0.843,-9.409,-0.005,0.011,-0.006
138985,-0.634,-0.843,-9.409,-0.004,0.011,-0.006
139088,-0.642,-0.848,-9.419,-0.005,0.011,-0.006
139191,-0.642,-0.84,-9.419,-0.004,0.012,-0.005
139294,-0.637,-0.85,-9.402,-0.004,0.012,-0.006
139397,-0.637,-0.848,-9.412,-0.005,0.011,-0.005
139500,-0.637,-0.828,-9.416,-0.005,0.011,-0.006
139603,-0.634,-0.857,-9.402,-0.005,0.011,-0.005
139706,-0.637,-0.848,-9.414,-0.005,0.012,-0.005
139809,-0.632,-0.84,-9.414,-0.005,0.012,-0.005
139912,-0.639,-0.855,-9.4,-0.005,0.012,-0.005
140015,-0.639,-0.848,-9.431,-0.005,0.011,-0.005
140118,-0.637,-0.85,-9.419,-0.005,0.011,-0.006
140221,-0.632,-0.86,-9.409,-0.005,0.012,-0.006
140324,-0.649,-0.85,-9.421,-0.005,0.011,-0.005
140427,-0.639,-0.85,-9.414,-0.004,0.012,-0.005
140530,-0.644,-0.84,-9.424,-0.005,0.011,-0.005
140633,-0.642,-0.838,-9.407,-0.004,0.012,-0.005
140736,-0.632,-0.85,-9.409,-0.005,0.012,-0.006
140839,-0.639,-0.836,-9.416,-0.005,0.011,-0.005
140942,-0.642,-0.838,-9.397,-0.005,0.011,-0.005
141045,-0.639,-0.848,-9.419,-0.005,0.011,-0.006
141148,-0.632,-0.84,-9.404,-0.005,0.012,-0.005
141251,-0.637,-0.845,-9.404,-0.005,0.011,-0.006
141354,-0.646,-0.85,-9.421,-0.004,0.011,-0.005
141457,-0.63,-0.85,-9.428,-0.005,0.011,-0.006
141560,-0.644,-0.84,-9.404,-0.005,0.012,-0.005
141663,-0.634,-0.852,-9.421,-0.005,0.011,-0.006
141766,-0.642,-0.852,-9.416,-0.004,0.012,-0.005
141869,-0.639,-0.84,-9.402,-0.005,0.011,-0.006
141972,-0.649,-0.838,-9.414,-0.005,0.011,-0.005
142075,-0.649,-0.84,-9.402,-0.005,0.012,-0.006
142178,-0.639,-0.855,-9.416,-0.005,0.011,-0.006
142281,-0.639,-0.836,-9.4,-0.004,0.011,-0.005
142384,-0.637,-0.848,-9.424,-0.005,0.011,-0.006
142487,-0.637,-0.852,-9.424,-0.004,0.011,-0.006
142590,-0.634,-0.845,-9.419,-0.004,0.011,-0.005
142693,-0.642,-0.848,-9.433,-0.005,0.012,-0.006
142796,-0.637,-0.852,-9.409,-0.005,0.012,-0.005
142899,-0.642,-0.838,-9.409,-0.005,0.011,-0.006
143002,-0.646,-0.845,-9.407,-0.005,0.011,-0.005
143105,-0.644,-0.84,-9.414,-0.005,0.011,-0.005
143208,-0.632,-0.855,-9.404,-0.005,0.012,-0.006
143311,-0.646,-0.85,-9.404,-0.005,0.012,-0.005
143414,-0.646,-0.848,-9.421,-0.005,0.012,-0.005
143517,-0.644,-0.848,-9.412,-0.005,0.011,-0.006
143620,-0.632,-0.855,-9.421,-0.005,0.011,-0.006
143723,-0.634,-0.84,-9.409,-0.005,0.011,-0.006
143826,-0.639,-0.843,-9.426,-0.005,0.011,-0.006
143929,-0.639,-0.85,-9.419,-0.005,0.011,-0.006
144032,-0.649,-0.845,-9.414,-0.004,0.012,-0.005
144135,-0.649,-0.85,-9.407,-0.005,0.011,-0.005
144238,-0.639,-0.845,-9.416,-0.005,0.012,-0.005
144341,-0.644,-0.843,-9.402,-0.005,0.011,-0.006
144444,-0.639,-0.85,-9.431,-0.005,0.011,-0.006
144547,-0.649,-0.836,-9.421,-0.005,0.012,-0.005
144650,-0.644,-0.843,-9.412,-0.005,0.012,-0.005
144753,-0.644,-0.843,-9.428,-0.004,0.011,-0.005
144856,-0.642,-0.85,-9.431,-0.005,0.011,-0.006
144959,-0.637,-0.848,-9.421,-0.005,0.012,-0.006
145062,-0.644,-0.855,-9.424,-0.005,0.012,-0.005
145165,-0.634,-0.85,-9.407,-0.005,0.012,-0.005
145268,-0.63,-0.85,-9.416,-0.005,0.012,-0.006
145371,-0.637,-0.845,-9.404,-0.005,0.011,-0.006
145474,-0.634,-0.845,-9.414,-0.005,0.011,-0.006
145577,-0.646,-0.84,-9.414,-0.005,0.012,-0.005
145680,-0.642,-0.843,-9.428,-0.005,0.011,-0.006
145783,-0.646,-0.85,-9.419,-0.005,0.011,-0.006
145886,-0.639,-0.845,-9.419,-0.004,0.012,-0.006
145989,-0.654,-0.845,-9.414,-0.005,0.011,-0.006
146092,-0.642,-0.84,-9.421,-0.005,0.011,-0.006
146195,-0.642,-0.845,-9.412,-0.005,0.012,-0.005
146298,-0.634,-0.84,-9.409,-0.004,0.012,-0.006
146401,-0.634,-0.845,-9.424,-0.005,0.012,-0.006
146504,-0.637,-0.836,-9.421,-0.005,0.012,-0.005
146607,-0.632,-0.845,-9.416,-0.005,0.012,-0.006
146710,-0.632,-0.85,-9.409,-0.005,0.011,-0.005
146813,-0.646,-0.84,-9.424,-0.005,0.011,-0.006
146916,-0.642,-0.852,-9.407,-0.005,0.012,-0.006
147019,-0.639,-0.85,-9.412,-0.005,0.012,-0.005
147122,-0.646,-0.843,-9.414,-0.004,0.012,-0.006
147225,-0.644,-0.852,-9.412,-0.005,0.012,-0.005
147328,-0.642,-0.85,-9.412,-0.005,0.012,-0.005
147431,-0.646,-0.852,-9.412,-0.005,0.011,-0.005
147534,-0.642,-0.852,-9.428,-0.004,0.012,-0.005
147637,-0.656,-0.838,-9.421,-0.005,0.011,-0.006
147740,-0.649,-0.845,-9.428,-0.005,0.012,-0.006
147843,-0.639,-0.857,-9.4,-0.005,0.011,-0.005
147946,-0.644,-0.838,-9.414,-0.005,0.011,-0.006
148049,-0.637,-0.857,-9.4,-0.005,0.011,-0.006
148152,-0.639,-0.843,-9.421,-0.005,0.011,-0.005
148255,-0.644,-0.845,-9.416,-0.005,0.011,-0.005
148358,-0.639,-0.862,-9.419,-0.005,0.012,-0.005
148461,-0.637,-0.838,-9.421,-0.005,0.012,-0.005
148564,-0.642,-0.848,-9.424,-0.005,0.012,-0.006
148667,-0.644,-0.852,-9.407,-0.005,0.011,-0.006
148770,-0.632,-0.833,-9.409,-0.005,0.011,-0.006
148873,-0.639,-0.843,-9.407,-0.005,0.012,-0.006
148976,-0.639,-0.848,-9.416,-0.005,0.012,-0.005
149079,-0.642,-0.845,-9.409,-0.005,0.012,-0.006
149182,-0.644,-0.857,-9.404,-0.005,0.011,-0.005
149285,-0.632,-0.843,-9.409,-0.004,0.011,-0.005
149388,-0.632,-0.836,-9.412,-0.005,0.011,-0.005
149491,-0.637,-0.848,-9.409,-0.004,0.011,-0.005
149594,-0.642,-0.845,-9.426,-0.005,0.012,-0.005
149697,-0.639,-0.843,-9.409,-0.005,0.012,-0.006
149800,-0.644,-0.848,-9.419,-0.005,0.012,-0.005
149903,-0.639,-0.845,-9.409,-0.005,0.011,-0.006
150006,-0.644,-0.85,-9.424,-0.005,0.012,-0.006
150109,-0.644,-0.85,-9.419,-0.005,0.011,-0.006
150212,-0.632,-0.85,-9.412,-0.005,0.011,-0.006
150315,-0.634,-0.84,-9.419,-0.005,0.012,-0.006
150418,-0.646,-0.84,-9.416,-0.005,0.011,-0.006
150521,-0.634,-0.845,-9.421,-0.004,0.012,-0.006
150624,-0.639,-0.855,-9.419,-0.005,0.012,-0.005
150727,-0.637,-0.843,-9.414,-0.005,0.012,-0.005
150830,-0.634,-0.848,-9.407,-0.004,0.011,-0.006
150933,-0.637,-0.845,-9.412,-0.005,0.011,-0.005
151036,-0.634,-0.836,-9.409,-0.005,0.012,-0.006
151139,-0.637,-0.855,-9.412,-0.004,0.011,-0.006
151242,-0.639,-0.85,-9.416,-0.005,0.011,-0.005
151345,-0.644,-0.857,-9.421,-0.005,0.012,-0.006
151448,-0.642,-0.852,-9.404,-0.005,0.012,-0.005
151551,-0.639,-0.84,-9.414,-0.004,0.011,-0.005
151654,-0.639,-0.845,-9.416,-0.005,0.012,-0.005
151757,-0.644,-0.85,-9.412,-0.004,0.011,-0.006
151860,-0.642,-0.836,-9.419,-0.005,0.012,-0.006
151963,-0.639,-0.85,-9.404,-0.005,0.011,-0.006
152066,-0.646,-0.843,-9.414,-0.004,0.012,-0.006
152169,-0.646,-0.845,-9.44,-0.005,0.012,-0.006
152272,-0.637,-0.848,-9.404,-0.005,0.011,-0.006
152375,-0.649,-0.836,-9.416,-0.004,0.011,-0.005
152478,-0.63,-0.84,-9.428,-0.004,0.012,-0.006
152581,-0.654,-0.855,-9.419,-0.004,0.012,-0.006
152684,-0.639,-0.84,-9.428,-0.005,0.011,-0.006
152787,-0.639,-0.836,-9.421,-0.004,0.012,-0.005
152890,-0.646,-0.84,-9.428,-0.005,0.012,-0.005
152993,-0.644,-0.843,-9.416,-0.005,0.012,-0.006
153096,-0.642,-0.848,-9.409,-0.005,0.012,-0.006
153199,-0.637,-0.848,-9.404,-0.005,0.012,-0.006
153302,-0.627,-0.845,-9.424,-0.005,0.012,-0.005
153405,-0.637,-0.85,-9.424,-0.005,0.011,-0.005
153508,-0.649,-0.852,-9.424,-0.005,0.011,-0.005
153611,-0.644,-0.84,-9.4,-0.005,0.011,-0.006
153714,-0.644,-0.845,-9.421,-0.005,0.012,-0.006
153817,-0.646,-0.84,-9.412,-0.005,0.012,-0.005
153920,-0.646,-0.845,-9.419,-0.005,0.012,-0.006
154023,-0.632,-0.85,-9.416,-0.005,0.011,-0.005
154126,-0.646,-0.848,-9.404,-0.005,0.012,-0.005
154229,-0.649,-0.845,-9.416,-0.005,0.012,-0.006
154332,-0.642,-0.84,-9.426,-0.005,0.012,-0.005
154435,-0.637,-0.84,-9.426,-0.005,0.012,-0.005
154538,-0.639,-0.845,-9.424,-0.005,0.011,-0.005
154641,-0.644,-0.84,-9.419,-0.005,0.012,-0.006
154744,-0.646,-0.843,-9.421,-0.004,0.012,-0.006
154847,-0.649,-0.85,-9.433,-0.005,0.012,-0.005
154950,-0.646,-0.84,-9.414,-0.005,0.012,-0.006
155053,-0.644,-0.852,-9.424,-0.005,0.011,-0.006
155156,-0.639,-0.845,-9.412,-0.005,0.011,-0.006
155259,-0.642,-0.833,-9.414,-0.005,0.011,-0.006
155362,-0.644,-0.84,-9.44,-0.005,0.012,-0.005
155465,-0.642,-0.84,-9.404,-0.005,0.012,-0.006
155568,-0.63,-0.848,-9.416,-0.004,0.011,-0.006
155671,-0.644,-0.845,-9.414,-0.005,0.011,-0.006
155774,-0.634,-0.848,-9.426,-0.005,0.011,-0.005
155877,-0.646,-0.848,-9.402,-0.004,0.011,-0.005
155980,-0.649,-0.843,-9.414,-0.005,0.011,-0.005
156083,-0.634,-0.855,-9.407,-0.005,0.012,-0.006
156186,-0.644,-0.845,-9.414,-0.005,0.011,-0.005
156289,-0.639,-0.845,-9.409,-0.005,0.012,-0.005
156392,-0.637,-0.838,-9.421,-0.005,0.012,-0.006
156495,-0.637,-0.848,-9.404,-0.005,0.012,-0.005
156598,-0.642,-0.845,-9.419,-0.005,0.012,-0.006
156701,-0.642,-0.843,-9.407,-0.004,0.012,-0.005
156804,-0.649,-0.852,-9.421,-0.005,0.012,-0.005
156907,-0.642,-0.843,-9.414,-0.005,0.011,-0.005
157010,-0.634,-0.84,-9.421,-0.005,0.011,-0.006
157113,-0.637,-0.843,-9.4,-0.005,0.011,-0.005
157216,-0.639,-0.845,-9.416,-0.005,0.012,-0.005
157319,-0.637,-0.855,-9.419,-0.005,0.011,-0.006
157422,-0.644,-0.838,-9.407,-0.005,0.011,-0.006
157525,-0.644,-0.845,-9.421,-0.005,0.012,-0.006
157628,-0.637,-0.848,-9.424,-0.005,0.011,-0.006
157731,-0.639,-0.843,-9.416,-0.005,0.011,-0.006
157834,-0.644,-0.848,-9.412,-0.005,0.011,-0.006
157937,-0.646,-0.86,-9.404,-0.005,0.011,-0.005
158040,-0.639,-0.843,-9.426,-0.005,0.011,-0.006
158143,-0.642,-0.852,-9.414,-0.005,0.011,-0.006
158246,-0.632,-0.845,-9.424,-0.005,0.011,-0.005
158349,-0.639,-0.85,-9.416,-0.004,0.012,-0.006
158452,-0.644,-0.845,-9.409,-0.005,0.012,-0.006
158555,-0.639,-0.838,-9.424,-0.005,0.011,-0.005
158658,-0.646,-0.845,-9.416,-0.005,0.011,-0.005
158761,-0.644,-0.848,-9.4,-0.005,0.011,-0.005
158864,-0.642,-0.848,-9.402,-0.004,0.011,-0.006
158967,-0.644,-0.857,-9.424,-0.005,0.011,-0.006
159070,-0.637,-0.85,-9.419,-0.005,0.011,-0.005
159173,-0.639,-0.843,-9.416,-0.005,0.011,-0.006
159276,-0.639,-0.85,-9.409,-0.005,0.011,-0.005
159379,-0.646,-0.84,-9.416,-0.005,0.011,-0.006
159482,-0.644,-0.843,-9.421,-0.005,0.011,-0.005
159585,-0.637,-0.845,-9.407,-0.005,0.012,-0.006
159688,-0.644,-0.831,-9.4,-0.005,0.011,-0.006
159791,-0.634,-0.843,-9.414,-0.005,0.012,-0.005
159894,-0.639,-0.843,-9.421,-0.005,0.011,-0.006
159997,-0.658,-0.845,-9.407,-0.005,0.011,-0.005
160100,-0.644,-0.855,-9.424,-0.004,0.011,-0.006
160203,-0.646,-0.84,-9.407,-0.004,0.012,-0.005
160306,-0.632,-0.845,-9.414,-0.005,0.011,-0.005
160409,-0.637,-0.845,-9.416,-0.005,0.011,-0.005
160512,-0.639,-0.843,-9.409,-0.005,0.011,-0.005
160615,-0.642,-0.852,-9.409,-0.005,0.011,-0.006
160718,-0.632,-0.836,-9.397,-0.005,0.011,-0.006
160821,-0.637,-0.833,-9.409,-0.005,0.011,-0.005
160924,-0.644,-0.848,-9.414,-0.005,0.011,-0.006
161027,-0.639,-0.845,-9.426,-0.005,0.012,-0.006
161130,-0.642,-0.845,-9.419,-0.005,0.012,-0.006
161233,-0.634,-0.85,-9.426,-0.005,0.012,-0.006
161336,-0.642,-0.843,-9.421,-0.005,0.012,-0.005
161439,-0.639,-0.845,-9.416,-0.005,0.012,-0.006
161542,-0.642,-0.86,-9.414,-0.005,0.012,-0.006
161645,-0.642,-0.852,-9.412,-0.004,0.011,-0.006
161748,-0.639,-0.855,-9.419,-0.005,0.011,-0.005
161851,-0.634,-0.855,-9.421,-0.004,0.011,-0.005
161954,-0.646,-0.831,-9.409,-0.005,0.011,-0.005
162057,-0.639,-0.862,-9.421,-0.004,0.012,-0.006
162160,-0.644,-0.843,-9.412,-0.005,0.011,-0.005
162263,-0.637,-0.848,-9.397,-0.005,0.011,-0.006
162366,-0.634,-0.845,-9.428,-0.005,0.011,-0.006
162469,-0.634,-0.845,-9.412,-0.005,0.011,-0.005
162572,-0.63,-0.848,-9.424,-0.005,0.012,-0.006
162675,-0.639,-0.85,-9.424,-0.004,0.011,-0.006
162778,-0.642,-0.84,-9.416,-0.005,0.012,-0.006
162881,-0.639,-0.855,-9.4,-0.005,0.011,-0.005
162984,-0.651,-0.843,-9.426,-0.005,0.011,-0.005
163087,-0.637,-0.85,-9.414,-0.005,0.011,-0.005
163190,-0.632,-0.855,-9.426,-0.005,0.011,-0.005
163293,-0.63,-0.848,-9.414,-0.005,0.011,-0.005
163396,-0.642,-0.836,-9.407,-0.005,0.012,-0.005
163499,-0.637,-0.843,-9.416,-0.005,0.011,-0.005
163602,-0.639,-0.848,-9.4,-0.005,0.011,-0.006
163705,-0.651,-0.84,-9.409,-0.004,0.011,-0.006
163808,-0.646,-0.848,-9.428,-0.005,0.011,-0.005
163911,-0.642,-0.833,-9.431,-0.005,0.011,-0.006
164014,-0.642,-0.848,-9.421,-0.004,0.011,-0.006
164117,-0.646,-0.848,-9.421,-0.005,0.011,-0.006
164220,-0.642,-0.843,-9.412,-0.004,0.012,-0.005
164323,-0.639,-0.845,-9.426,-0.004,0.011,-0.006
164426,-0.644,-0.838,-9.431,-0.005,0.011,-0.006
164529,-0.642,-0.855,-9.424,-0.005,0.012,-0.005
164632,-0.642,-0.855,-9.412,-0.005,0.011,-0.006
164735,-0.644,-0.85,-9.419,-0.005,0.011,-0.005
164838,-0.646,-0.843,-9.414,-0.004,0.012,-0.006
164941,-0.637,-0.85,-9.412,-0.005,0.011,-0.005
165044,-0.642,-0.845,-9.421,-0.005,0.012,-0.006
165147,-0.644,-0.845,-9.402,-0.005,0.011,-0.006
165250,-0.637,-0.852,-9.416,-0.005,0.012,-0.005
165353,-0.642,-0.843,-9.424,-0.005,0.011,-0.006
165456,-0.642,-0.857,-9.421,-0.005,0.011,-0.005
165559,-0.644,-0.838,-9.421,-0.004,0.012,-0.005
165662,-0.639,-0.845,-9.419,-0.005,0.011,-0.006
165765,-0.654,-0.848,-9.412,-0.004,0.011,-0.005
165868,-0.642,-0.843,-9.421,-0.005,0.011,-0.005
165971,-0.63,-0.843,-9.424,-0.005,0.012,-0.006
166074,-0.637,-0.848,-9.402,-0.005,0.012,-0.005
166177,-0.634,-0.833,-9.412,-0.005,0.011,-0.005
166280,-0.637,-0.85,-9.428,-0.005,0.012,-0.006
166383,-0.642,-0.848,-9.428,-0.005,0.011,-0.006
166486,-0.646,-0.845,-9.421,-0.004,0.012,-0.006
166589,-0.632,-0.85,-9.421,-0.005,0.011,-0.006
166692,-0.644,-0.848,-9.428,-0.004,0.011,-0.005
166795,-0.644,-0.845,-9.412,-0.004,0.012,-0.005
166898,-0.637,-0.838,-9.4,-0.005,0.012,-0.005
167001,-0.642,-0.838,-9.404,-0.005,0.011,-0.005
167104,-0.642,-0.843,-9.407,-0.005,0.012,-0.006
167207,-0.646,-0.843,-9.421,-0.004,0.011,-0.005
167310,-0.642,-0.845,-9.392,-0.005,0.011,-0.005
167413,-0.651,-0.84,-9.421,-0.005,0.012,-0.006
167516,-0.644,-0.838,-9.414,-0.004,0.012,-0.005
167619,-0.642,-0.855,-9.412,-0.005,0.012,-0.006
167722,-0.646,-0.855,-9.421,-0.005,0.011,-0.006
167825,-0.649,-0.848,-9.416,-0.005,0.012,-0.006
167928,-0.637,-0.85,-9.426,-0.004,0.011,-0.006
168031,-0.649,-0.848,-9.414,-0.005,0.011,-0.005
168134,-0.642,-0.838,-9.414,-0.005,0.011,-0.005
168237,-0.639,-0.845,-9.419,-0.005,0.012,-0.005
168340,-0.637,-0.848,-9.426,-0.005,0.011,-0.005
168443,-0.644,-0.84,-9.407,-0.004,0.011,-0.006
168546,-0.644,-0.848,-9.424,-0.005,0.012,-0.005
168649,-0.637,-0.84,-9.419,-0.005,0.011,-0.005
168752,-0.634,-0.848,-9.416,-0.004,0.012,-0.006
168855,-0.634,-0.855,-9.424,-0.005,0.011,-0.005
168958,-0.632,-0.85,-9.419,-0.005,0.011,-0.005
169061,-0.649,-0.836,-9.421,-0.005,0.011,-0.006
169164,-0.646,-0.843,-9.426,-0.005,0.012,-0.005
169267,-0.634,-0.838,-9.414,-0.005,0.012,-0.005
169370,-0.639,-0.848,-9.419,-0.005,0.012,-0.005
169473,-0.632,-0.84,-9.424,-0.005,0.011,-0.006
169576,-0.649,-0.845,-9.421,-0.004,0.012,-0.005
169679,-0.642,-0.857,-9.416,-0.005,0.011,-0.005
169782,-0.639,-0.84,-9.402,-0.005,0.011,-0.005
169885,-0.649,-0.85,-9.409,-0.004,0.011,-0.006
169988,-0.639,-0.85,-9.424,-0.005,0.011,-0.005
170091,-0.637,-0.848,-9.419,-0.004,0.012,-0.006
170194,-0.646,-0.848,-9.421,-0.004,0.011,-0.005
170297,-0.639,-0.848,-9.407,-0.005,0.012,-0.005
170400,-0.642,-0.845,-9.428,-0.004,0.011,-0.006
170503,-0.63,-0.848,-9.419,-0.005,0.011,-0.006
170606,-0.632,-0.84,-9.421,-0.005,0.012,-0.005
170709,-0.639,-0.84,-9.4,-0.005,0.012,-0.005
170812,-0.625,-0.848,-9.407,-0.005,0.012,-0.006
170915,-0.642,-0.84,-9.431,-0.005,0.011,-0.005
171018,-0.642,-0.852,-9.416,-0.005,0.011,-0.006
171121,-0.637,-0.85,-9.414,-0.005,0.012,-0.005
171224,-0.642,-0.824,-9.419,-0.004,0.011,-0.006
171327,-0.637,-0.848,-9.409,-0.005,0.012,-0.006
171430,-0.63,-0.845,-9.414,-0.005,0.012,-0.005
171533,-0.642,-0.848,-9.414,-0.005,0.012,-0.006
171636,-0.642,-0.855,-9.421,-0.005,0.011,-0.005
171739,-0.639,-0.838,-9.407,-0.004,0.012,-0.005
171842,-0.637,-0.852,-9.412,-0.005,0.012,-0.005
171945,-0.642,-0.845,-9.407,-0.005,0.012,-0.005
172048,-0.649,-0.836,-9.421,-0.005,0.011,-0.006
172151,-0.634,-0.852,-9.416,-0.005,0.012,-0.005
172254,-0.644,-0.852,-9.409,-0.005,0.011,-0.006
172357,-0.644,-0.843,-9.419,-0.005,0.011,-0.005
172460,-0.634,-0.84,-9.412,-0.005,0.011,-0.006
172563,-0.627,-0.843,-9.407,-0.004,0.011,-0.005
172666,-0.634,-0.85,-9.404,-0.005,0.011,-0.005
172769,-0.651,-0.852,-9.412,-0.004,0.012,-0.005
172872,-0.639,-0.833,-9.404,-0.005,0.012,-0.005
172975,-0.637,-0.85,-9.414,-0.005,0.012,-0.006
173078,-0.644,-0.845,-9.424,-0.005,0.011,-0.006
173181,-0.644,-0.845,-9.414,-0.005,0.012,-0.006
173284,-0.639,-0.85,-9.416,-0.004,0.012,-0.006
173387,-0.639,-0.843,-9.409,-0.004,0.011,-0.005
173490,-0.637,-0.845,-9.409,-0.005,0.011,-0.005
173593,-0.644,-0.845,-9.416,-0.004,0.011,-0.005
173696,-0.637,-0.848,-9.428,-0.004,0.011,-0.005
173799,-0.646,-0.845,-9.424,-0.005,0.011,-0.005
173902,-0.644,-0.852,-9.424,-0.005,0.011,-0.005
174005,-0.639,-0.848,-9.421,-0.005,0.012,-0.005
174108,-0.634,-0.84,-9.414,-0.005,0.012,-0.006
174211,-0.632,-0.85,-9.421,-0.005,0.011,-0.005
174314,-0.642,-0.838,-9.426,-0.005,0.012,-0.006
174417,-0.639,-0.845,-9.409,-0.005,0.012,-0.005
174520,-0.634,-0.852,-9.426,-0.005,0.012,-0.006
174623,-0.642,-0.848,-9.409,-0.005,0.012,-0.005
174726,-0.646,-0.85,-9.416,-0.004,0.012,-0.006
174829,-0.646,-0.84,-9.424,-0.005,0.011,-0.005
174932,-0.646,-0.843,-9.419,-0.004,0.012,-0.006
175035,-0.634,-0.84,-9.402,-0.005,0.011,-0.005
175138,-0.637,-0.838,-9.424,-0.005,0.012,-0.006
175241,-0.637,-0.85,-9.426,-0.004,0.011,-0.006
175344,-0.637,-0.838,-9.44,-0.005,0.011,-0.005
175447,-0.644,-0.84,-9.414,-0.005,0.012,-0.006
175550,-0.639,-0.848,-9.421,-0.005,0.011,-0.006
175653,-0.642,-0.845,-9.407,-0.004,0.012,-0.006
175756,-0.651,-0.85,-9.419,-0.005,0.012,-0.006
175859,-0.642,-0.85,-9.416,-0.005,0.012,-0.005
175962,-0.646,-0.838,-9.414,-0.005,0.012,-0.006
176065,-0.642,-0.84,-9.424,-0.005,0.012,-0.005
176168,-0.642,-0.845,-9.416,-0.005,0.011,-0.006
176271,-0.644,-0.843,-9.409,-0.005,0.012,-0.005
176374,-0.651,-0.857,-9.416,-0.005,0.011,-0.006
176477,-0.649,-0.848,-9.409,-0.005,0.012,-0.005
176580,-0.637,-0.843,-9.409,-0.004,0.012,-0.005
176683,-0.642,-0.845,-9.426,-0.005,0.011,-0.006
176786,-0.646,-0.838,-9.407,-0.005,0.012,-0.006
176889,-0.642,-0.845,-9.412,-0.005,0.012,-0.006
176992,-0.637,-0.85,-9.414,-0.005,0.011,-0.006
177095,-0.646,-0.828,-9.416,-0.004,0.011,-0.006
177198,-0.637,-0.843,-9.421,-0.005,0.012,-0.005
177301,-0.644,-0.848,-9.416,-0.005,0.012,-0.006
177404,-0.644,-0.836,-9.404,-0.004,0.012,-0.006
177507,-0.637,-0.84,-9.421,-0.005,0.012,-0.005
177610,-0.644,-0.843,-9.412,-0.005,0.012,-0.006
177713,-0.654,-0.845,-9.424,-0.004,0.012,-0.006
177816,-0.632,-0.852,-9.414,-0.005,0.011,-0.006
177919,-0.639,-0.838,-9.419,-0.005,0.011,-0.005
178022,-0.646,-0.85,-9.416,-0.005,0.012,-0.005
178125,-0.642,-0.855,-9.412,-0.005,0.012,-0.005
178228,-0.634,-0.848,-9.412,-0.004,0.011,-0.005
178331,-0.639,-0.848,-9.412,-0.005,0.011,-0.005
178434,-0.642,-0.836,-9.438,-0.005,0.011,-0.005
178537,-0.634,-0.848,-9.421,-0.005,0.011,-0.005
178640,-0.637,-0.848,-9.407,-0.005,0.011,-0.005
178743,-0.639,-0.838,-9.407,-0.005,0.012,-0.005
178846,-0.637,-0.845,-9.416,-0.005,0.012,-0.006
178949,-0.651,-0.855,-9.409,-0.004,0.012,-0.006
179052,-0.637,-0.836,-9.416,-0.005,0.011,-0.005
179155,-0.642,-0.848,-9.409,-0.005,0.011,-0.005
179258,-0.644,-0.85,-9.414,-0.005,0.011,-0.005
179361,-0.637,-0.855,-9.412,-0.005,0.011,-0.006
179464,-0.642,-0.85,-9.421,-0.005,0.012,-0.006
179567,-0.646,-0.843,-9.409,-0.005,0.011,-0.005
179670,-0.634,-0.85,-9.409,-0.005,0.011,-0.005
179773,-0.637,-0.84,-9.419,-0.005,0.012,-0.006
179876,-0.642,-0.838,-9.404,-0.005,0.011,-0.005
179979,-0.649,-0.85,-9.419,-0.005,0.011,-0.005
180082,-0.649,-0.848,-9.414,-0.005,0.011,-0.005
180185,-0.642,-0.845,-9.428,-0.005,0.012,-0.005
180288,-0.649,-0.85,-9.404,-0.005,0.011,-0.006
180391,-0.63,-0.845,-9.426,-0.005,0.012,-0.005
180494,-0.632,-0.843,-9.402,-0.004,0.011,-0.005
180597,-0.639,-0.855,-9.409,-0.004,0.011,-0.005
180700,-0.644,-0.848,-9.416,-0.005,0.012,-0.005
180803,-0.634,-0.852,-9.414,-0.004,0.012,-0.006
180906,-0.63,-0.848,-9.419,-0.005,0.012,-0.005
181009,-0.646,-0.807,-9.4,0.233,-0.003,-0.014
181112,-0.654,-1.178,-9.385,0.069,0.008,-0.007
181215,-0.651,-1.161,-9.373,-0.002,0.012,-0.005
181318,-0.649,-1.176,-9.376,-0.005,0.011,-0.005
181421,-0.656,-1.18,-9.371,-0.004,0.011,-0.005
181524,-0.656,-1.168,-9.371,-0.004,0.011,-0.005
181627,-0.654,-1.166,-9.388,-0.005,0.012,-0.005
181730,-0.654,-1.176,-9.385,-0.005,0.012,-0.005
181833,-0.654,-1.156,-9.371,-0.004,0.011,-0.005
181936,-0.654,-1.176,-9.378,-0.005,0.011,-0.006
182039,-0.658,-1.173,-9.395,-0.004,0.011,-0.006
182142,-0.654,-1.161,-9.395,-0.005,0.011,-0.006
182245,-0.656,-1.171,-9.369,-0.004,0.012,-0.006
182348,-0.658,-1.166,-9.376,-0.004,0.011,-0.006
182451,-0.658,-1.156,-9.383,-0.004,0.011,-0.006
182554,-0.654,-1.171,-9.378,-0.004,0.011,-0.005
182657,-0.651,-1.176,-9.38,-0.005,0.011,-0.005
182760,-0.654,-1.168,-9.383,-0.005,0.011,-0.006
182863,-0.658,-1.168,-9.395,-0.005,0.011,-0.006
182966,-0.661,-1.161,-9.378,-0.005,0.011,-0.006
183069,-0.661,-1.166,-9.373,-0.005,0.012,-0.005
183172,-0.644,-1.168,-9.385,-0.005,0.012,-0.006
183275,-0.651,-1.159,-9.378,-0.005,0.011,-0.005
183378,-0.649,-1.171,-9.385,-0.005,0.011,-0.005
183481,-0.663,-1.168,-9.373,-0.004,0.011,-0.005
183584,-0.651,-1.168,-9.364,-0.004,0.011,-0.006
183687,-0.651,-1.171,-9.376,-0.005,0.011,-0.006
183790,-0.658,-1.156,-9.38,-0.005,0.012,-0.006
183893,-0.658,-1.171,-9.39,-0.004,0.012,-0.005
183996,-0.661,-1.161,-9.378,-0.004,0.012,-0.006
184099,-0.67,-1.161,-9.397,-0.005,0.011,-0.006
184202,-0.661,-1.178,-9.388,-0.005,0.011,-0.006
184305,-0.663,-1.161,-9.378,-0.005,0.011,-0.005
184408,-0.649,-1.166,-9.385,-0.004,0.012,-0.005
184511,-0.661,-1.173,-9.378,-0.004,0.011,-0.005
184614,-0.654,-1.154,-9.376,-0.004,0.012,-0.005
184717,-0.666,-1.159,-9.38,-0.005,0.011,-0.006
184820,-0.654,-1.161,-9.385,-0.005,0.012,-0.006
184923,-0.663,-1.156,-9.39,-0.005,0.012,-0.005
185026,-0.654,-1.176,-9.373,-0.005,0.012,-0.006
185129,-0.666,-1.166,-9.388,-0.005,0.012,-0.005
185232,-0.668,-1.159,-9.378,-0.005,0.011,-0.005
185335,-0.656,-1.168,-9.376,-0.004,0.012,-0.006
185438,-0.651,-1.161,-9.373,-0.005,0.012,-0.005
185541,-0.651,-1.171,-9.378,-0.004,0.012,-0.006
185644,-0.658,-1.161,-9.371,-0.005,0.012,-0.005
185747,-0.656,-1.173,-9.359,-0.005,0.011,-0.006
185850,-0.661,-1.154,-9.366,-0.004,0.012,-0.005
185953,-0.656,-1.159,-9.376,-0.004,0.011,-0.006
186056,-0.658,-1.161,-9.373,-0.005,0.012,-0.005
186159,-0.663,-1.159,-9.378,-0.005,0.012,-0.006
186262,-0.663,-1.156,-9.38,-0.005,0.011,-0.005
186365,-0.642,-1.161,-9.378,-0.004,0.012,-0.006
186468,-0.661,-1.171,-9.378,-0.004,0.011,-0.005
186571,-0.661,-1.171,-9.38,-0.005,0.012,-0.006
186674,-0.651,-1.168,-9.371,-0.005,0.012,-0.006
186777,-0.661,-1.171,-9.385,-0.005,0.012,-0.006
186880,-0.649,-1.171,-9.383,-0.005,0.011,-0.005
186983,-0.663,-1.168,-9.378,-0.005,0.012,-0.006
187086,-0.654,-1.164,-9.371,-0.005,0.012,-0.005
187189,-0.654,-1.161,-9.385,-0.005,0.011,-0.005
187292,-0.649,-1.161,-9.38,-0.005,0.012,-0.005
187395,-0.663,-1.164,-9.366,-0.005,0.011,-0.005
187498,-0.656,-1.173,-9.371,-0.005,0.012,-0.006
187601,-0.651,-1.176,-9.383,-0.005,0.012,-0.005
187704,-0.651,-1.159,-9.349,-0.004,0.011,-0.005
187807,-0.656,-1.159,-9.397,-0.005,0.012,-0.005
187910,-0.661,-1.176,-9.383,-0.005,0.011,-0.006
188013,-0.649,-1.156,-9.4,-0.005,0.012,-0.005
188116,-0.663,-1.168,-9.376,-0.004,0.011,-0.006
188219,-0.661,-1.164,-9.39,-0.004,0.011,-0.005
188322,-0.654,-1.159,-9.383,-0.005,0.011,-0.005
188425,-0.658,-1.168,-9.388,-0.005,0.011,-0.006
188528,-0.658,-1.159,-9.38,-0.005,0.011,-0.005
188631,-0.663,-1.164,-9.371,-0.005,0.011,-0.006
188734,-0.663,-1.161,-9.373,-0.005,0.012,-0.006
188837,-0.651,-1.161,-9.38,-0.005,0.012,-0.005
188940,-0.658,-1.176,-9.376,-0.004,0.012,-0.005
189043,-0.658,-1.164,-9.38,-0.005,0.011,-0.005
189146,-0.658,-1.166,-9.388,-0.005,0.011,-0.006
189249,-0.654,-1.168,-9.38,-0.004,0.012,-0.005
189352,-0.658,-1.159,-9.371,-0.005,0.012,-0.005
189455,-0.654,-1.173,-9.385,-0.005,0.012,-0.005
189558,-0.646,-1.176,-9.376,-0.005,0.012,-0.006
189661,-0.656,-1.168,-9.364,-0.005,0.011,-0.005
189764,-0.656,-1.159,-9.38,-0.005,0.012,-0.006
189867,-0.668,-1.168,-9.385,-0.005,0.011,-0.006
189970,-0.656,-1.164,-9.369,-0.005,0.011,-0.005
190073,-0.654,-1.173,-9.373,-0.005,0.011,-0.006
190176,-0.658,-1.159,-9.369,-0.005,0.012,-0.006
190279,-0.656,-1.154,-9.378,-0.005,0.012,-0.005
190382,-0.656,-1.173,-9.376,-0.004,0.012,-0.006
190485,-0.663,-1.171,-9.376,-0.005,0.012,-0.006
190588,-0.661,-1.161,-9.378,-0.005,0.012,-0.005
190691,-0.654,-1.168,-9.378,-0.004,0.012,-0.005
190794,-0.661,-1.161,-9.383,-0.005,0.011,-0.005
190897,-0.646,-1.166,-9.371,-0.005,0.012,-0.006
191000,-0.668,-1.176,-9.392,-0.005,0.011,-0.006
191103,-0.654,-1.171,-9.383,-0.004,0.011,-0.005
191206,-0.656,-1.173,-9.38,-0.005,0.012,-0.006
191309,-0.666,-1.166,-9.385,-0.004,0.012,-0.006
191412,-0.654,-1.156,-9.388,-0.004,0.012,-0.006
191515,-0.654,-1.166,-9.38,-0.004,0.012,-0.005
191618,-0.656,-1.159,-9.385,-0.005,0.012,-0.005
191721,-0.646,-1.159,-9.392,-0.005,0.012,-0.006
191824,-0.656,-1.164,-9.383,-0.005,0.011,-0.006
191927,-0.654,-1.161,-9.366,-0.005,0.012,-0.005
192030,-0.656,-1.164,-9.376,-0.005,0.011,-0.006
192133,-0.67,-1.171,-9.369,-0.005,0.012,-0.005
192236,-0.649,-1.173,-9.38,-0.005,0.011,-0.005
192339,-0.668,-1.171,-9.385,-0.004,0.012,-0.005
192442,-0.656,-1.171,-9.376,-0.004,0.012,-0.005
192545,-0.651,-1.159,-9.388,-0.005,0.012,-0.005
192648,-0.656,-1.161,-9.383,-0.005,0.011,-0.006
192751,-0.661,-1.168,-9.373,-0.005,0.012,-0.006
192854,-0.654,-1.166,-9.378,-0.005,0.011,-0.005
192957,-0.658,-1.166,-9.373,-0.005,0.011,-0.006
193060,-0.656,-1.166,-9.383,-0.005,0.012,-0.006
193163,-0.654,-1.161,-9.385,-0.005,0.012,-0.006
193266,-0.658,-1.164,-9.38,-0.005,0.012,-0.006
193369,-0.656,-1.154,-9.366,-0.005,0.011,-0.006
193472,-0.656,-1.164,-9.39,-0.005,0.011,-0.006
193575,-0.654,-1.164,-9.378,-0.005,0.012,-0.005
193678,-0.654,-1.164,-9.376,-0.005,0.011,-0.005
193781,-0.656,-1.166,-9.38,-0.005,0.011,-0.005
193884,-0.654,-1.159,-9.376,-0.004,0.011,-0.005
193987,-0.642,-1.161,-9.392,-0.005,0.011,-0.005
194090,-0.651,-1.176,-9.383,-0.005,0.011,-0.005
194193,-0.656,-1.156,-9.376,-0.004,0.012,-0.005
194296,-0.656,-1.171,-9.373,-0.004,0.012,-0.005
194399,-0.651,-1.168,-9.376,-0.005,0.012,-0.006
194502,-0.661,-1.171,-9.378,-0.005,0.011,-0.005
194605,-0.668,-1.166,-9.373,-0.005,0.012,-0.006
194708,-0.654,-1.159,-9.392,-0.004,0.011,-0.006
194811,-0.658,-1.168,-9.388,-0.005,0.011,-0.005
194914,-0.661,-1.166,-9.373,-0.005,0.012,-0.006
195017,-0.666,-1.159,-9.376,-0.005,0.012,-0.006
195120,-0.654,-1.168,-9.383,-0.004,0.012,-0.005
195223,-0.654,-1.171,-9.376,-0.005,0.011,-0.005
195326,-0.651,-1.168,-9.378,-0.005,0.012,-0.006
195429,-0.654,-1.168,-9.395,-0.005,0.011,-0.006
195532,-0.656,-1.168,-9.383,-0.005,0.011,-0.005
195635,-0.656,-1.159,-9.371,-0.005,0.012,-0.005
195738,-0.654,-1.168,-9.388,-0.005,0.011,-0.006
195841,-0.661,-1.166,-9.38,-0.005,0.011,-0.005
195944,-0.654,-1.166,-9.383,-0.004,0.011,-0.006
196047,-0.661,-1.156,-9.383,-0.005,0.012,-0.006
196150,-0.666,-1.164,-9.38,-0.005,0.011,-0.005
196253,-0.649,-1.166,-9.38,-0.005,0.011,-0.006
196356,-0.663,-1.168,-9.378,-0.005,0.011,-0.005
196459,-0.651,-1.161,-9.388,-0.005,0.011,-0.006
196562,-0.646,-1.166,-9.39,-0.005,0.012,-0.006
196665,-0.651,-1.156,-9.397,-0.005,0.011,-0.005
196768,-0.651,-1.159,-9.378,-0.005,0.012,-0.006
196871,-0.651,-1.176,-9.38,-0.005,0.012,-0.006
196974,-0.649,-1.154,-9.378,-0.005,0.012,-0.005
197077,-0.651,-1.164,-9.383,-0.005,0.011,-0.006
197180,-0.651,-1.164,-9.373,-0.005,0.011,-0.006
197283,-0.658,-1.159,-9.38,-0.005,0.012,-0.006
197386,-0.663,-1.176,-9.388,-0.004,0.011,-0.006
197489,-0.656,-1.164,-9.364,-0.005,0.012,-0.006
197592,-0.666,-1.154,-9.383,-0.005,0.012,-0.005
197695,-0.663,-1.164,-9.378,-0.004,0.011,-0.005
197798,-0.654,-1.164,-9.38,-0.005,0.011,-0.005
197901,-0.656,-1.164,-9.385,-0.005,0.012,-0.006
198004,-0.663,-1.176,-9.385,-0.005,0.012,-0.005
198107,-0.661,-1.159,-9.388,-0.005,0.012,-0.005
198210,-0.656,-1.168,-9.376,-0.005,0.011,-0.005
198313,-0.654,-1.159,-9.38,-0.005,0.012,-0.005
198416,-0.649,-1.168,-9.392,-0.005,0.012,-0.006
198519,-0.651,-1.168,-9.378,-0.005,0.012,-0.005
198622,-0.649,-1.156,-9.373,-0.005,0.011,-0.005
198725,-0.661,-1.164,-9.38,-0.005,0.012,-0.006
198828,-0.661,-1.168,-9.39,-0.005,0.012,-0.006
198931,-0.644,-1.173,-9.376,-0.004,0.011,-0.006
199034,-0.658,-1.173,-9.373,-0.004,0.012,-0.005
199137,-0.658,-1.173,-9.376,-0.005,0.012,-0.006
199240,-0.649,-1.166,-9.388,-0.005,0.012,-0.006
199343,-0.651,-1.168,-9.385,-0.005,0.012,-0.005
199446,-0.649,-1.168,-9.397,-0.005,0.012,-0.005
199549,-0.651,-1.164,-9.385,-0.005,0.011,-0.006
199652,-0.654,-1.176,-9.376,-0.005,0.011,-0.005
199755,-0.666,-1.166,-9.39,-0.005,0.012,-0.005
199858,-0.658,-1.168,-9.373,-0.005,0.012,-0.006
199961,-0.658,-1.166,-9.385,-0.005,0.011,-0.006
200064,-0.656,-1.166,-9.378,-0.004,0.011,-0.006
200167,-0.649,-1.159,-9.39,-0.005,0.011,-0.006
200270,-0.651,-1.171,-9.378,-0.004,0.011,-0.005
200373,-0.661,-1.154,-9.38,-0.005,0.012,-0.005
200476,-0.663,-1.171,-9.378,-0.005,0.012,-0.006
200579,-0.67,-1.161,-9.369,-0.005,0.011,-0.005
200682,-0.668,-1.166,-9.388,-0.004,0.012,-0.006
200785,-0.668,-1.171,-9.383,-0.004,0.011,-0.006
200888,-0.658,-1.164,-9.376,-0.005,0.011,-0.006
200991,-0.663,-1.173,-9.371,-0.005,0.012,-0.006
201094,-0.663,-1.168,-9.383,-0.005,0.012,-0.006
201197,-0.661,-1.161,-9.385,-0.004,0.012,-0.005
201300,-0.651,-1.166,-9.38,-0.005,0.011,-0.005
201403,-0.663,-1.166,-9.378,-0.005,0.012,-0.006
201506,-0.654,-1.161,-9.383,-0.005,0.012,-0.005
201609,-0.658,-1.168,-9.366,-0.005,0.012,-0.005
201712,-0.658,-1.168,-9.378,-0.004,0.012,-0.005
201815,-0.656,-1.159,-9.385,-0.005,0.011,-0.005
201918,-0.661,-1.171,-9.373,-0.005,0.011,-0.006
202021,-0.656,-1.166,-9.38,-0.005,0.012,-0.006
202124,-0.651,-1.173,-9.376,-0.005,0.012,-0.006
202227,-0.651,-1.166,-9.376,-0.005,0.012,-0.005
202330,-0.661,-1.164,-9.369,-0.005,0.012,-0.006
202433,-0.663,-1.171,-9.385,-0.004,0.012,-0.005
202536,-0.656,-1.173,-9.378,-0.005,0.011,-0.005
202639,-0.651,-1.164,-9.378,-0.004,0.011,-0.006
202742,-0.649,-1.171,-9.373,-0.004,0.011,-0.005
202845,-0.654,-1.161,-9.388,-0.005,0.012,-0.005
202948,-0.649,-1.168,-9.385,-0.005,0.012,-0.006
203051,-0.656,-1.176,-9.39,-0.005,0.012,-0.005
203154,-0.658,-1.168,-9.397,-0.005,0.011,-0.005
203257,-0.658,-1.173,-9.371,-0.005,0.012,-0.006
203360,-0.663,-1.156,-9.373,-0.005,0.011,-0.006
203463,-0.654,-1.166,-9.373,-0.005,0.012,-0.005
203566,-0.658,-1.168,-9.366,-0.005,0.012,-0.005
203669,-0.649,-1.161,-9.378,-0.005,0.012,-0.006
203772,-0.654,-1.164,-9.39,-0.005,0.012,-0.006
203875,-0.644,-1.164,-9.395,-0.005,0.012,-0.005
203978,-0.651,-1.173,-9.378,-0.005,0.012,-0.005
204081,-0.656,-1.176,-9.371,-0.005,0.012,-0.006
204184,-0.656,-1.171,-9.371,-0.004,0.011,-0.006
204287,-0.646,-1.164,-9.373,-0.005,0.012,-0.006
204390,-0.651,-1.166,-9.395,-0.005,0.012,-0.006
204493,-0.663,-1.168,-9.376,-0.005,0.011,-0.005
204596,-0.658,-1.168,-9.38,-0.005,0.012,-0.006
204699,-0.658,-1.178,-9.38,-0.004,0.011,-0.006
204802,-0.656,-1.164,-9.378,-0.005,0.011,-0.005
204905,-0.646,-1.173,-9.388,-0.005,0.012,-0.006
205008,-0.649,-1.164,-9.371,-0.004,0.011,-0.006
205111,-0.642,-1.159,-9.376,-0.005,0.012,-0.006
205214,-0.654,-1.166,-9.388,-0.004,0.012,-0.006
205317,-0.658,-1.159,-9.38,-0.005,0.012,-0.006
205420,-0.649,-1.164,-9.38,-0.005,0.011,-0.006
205523,-0.649,-1.164,-9.39,-0.004,0.011,-0.005
205626,-0.654,-1.168,-9.388,-0.005,0.012,-0.005
205729,-0.651,-1.168,-9.383,-0.005,0.012,-0.006
205832,-0.661,-1.176,-9.371,-0.004,0.011,-0.006
205935,-0.661,-1.178,-9.364,-0.004,0.012,-0.005
206038,-0.654,-1.166,-9.392,-0.005,0.011,-0.005
206141,-0.644,-1.166,-9.38,-0.005,0.011,-0.005
206244,-0.654,-1.164,-9.369,-0.005,0.012,-0.005
206347,-0.654,-1.171,-9.373,-0.005,0.012,-0.006
206450,-0.658,-1.168,-9.392,-0.005,0.011,-0.005
206553,-0.656,-1.166,-9.388,-0.005,0.011,-0.006
206656,-0.654,-1.178,-9.376,-0.005,0.011,-0.005
206759,-0.663,-1.154,-9.371,-0.005,0.012,-0.006
206862,-0.654,-1.166,-9.376,-0.005,0.012,-0.006
206965,-0.656,-1.171,-9.378,-0.005,0.012,-0.006
207068,-0.654,-1.159,-9.378,-0.004,0.011,-0.005
207171,-0.663,-1.166,-9.39,-0.005,0.012,-0.006
207274,-0.654,-1.159,-9.378,-0.005,0.011,-0.006
207377,-0.651,-1.166,-9.392,-0.005,0.011,-0.006
207480,-0.663,-1.168,-9.369,-0.005,0.011,-0.006
207583,-0.663,-1.168,-9.373,-0.005,0.011,-0.005
207686,-0.663,-1.176,-9.38,-0.005,0.011,-0.006
207789,-0.656,-1.171,-9.38,-0.005,0.011,-0.005
207892,-0.651,-1.161,-9.385,-0.004,0.011,-0.005
207995,-0.644,-1.164,-9.385,-0.004,0.011,-0.006
208098,-0.654,-1.171,-9.378,-0.004,0.011,-0.006
208201,-0.651,-1.161,-9.397,-0.005,0.012,-0.005
208304,-0.654,-1.164,-9.383,-0.004,0.011,-0.006
208407,-0.663,-1.159,-9.378,-0.005,0.011,-0.006
208510,-0.658,-1.173,-9.395,-0.005,0.012,-0.006
208613,-0.654,-1.166,-9.388,-0.005,0.012,-0.005
208716,-0.654,-1.173,-9.373,-0.005,0.012,-0.005
208819,-0.651,-1.166,-9.395,-0.005,0.011,-0.006
208922,-0.651,-1.171,-9.395,-0.004,0.012,-0.005
209025,-0.656,-1.168,-9.383,-0.005,0.011,-0.005
209128,-0.656,-1.168,-9.385,-0.004,0.012,-0.005
209231,-0.646,-1.166,-9.39,-0.005,0.011,-0.006
209334,-0.654,-1.154,-9.371,-0.005,0.011,-0.006
209437,-0.651,-1.173,-9.383,-0.005,0.012,-0.006
209540,-0.663,-1.168,-9.369,-0.005,0.012,-0.005
209643,-0.651,-1.159,-9.371,-0.005,0.012,-0.006
209746,-0.661,-1.159,-9.378,-0.004,0.012,-0.006
209849,-0.661,-1.161,-9.383,-0.005,0.012,-0.005
209952,-0.663,-1.171,-9.378,-0.005,0.011,-0.006
210055,-0.656,-1.168,-9.369,-0.005,0.012,-0.005
210158,-0.649,-1.161,-9.373,-0.004,0.012,-0.005
210261,-0.663,-1.173,-9.395,-0.005,0.011,-0.006
210364,-0.656,-1.168,-9.395,-0.005,0.011,-0.006
210467,-0.654,-1.161,-9.39,-0.004,0.011,-0.006
210570,-0.646,-1.171,-9.397,-0.005,0.012,-0.006
210673,-0.654,-1.173,-9.378,-0.005,0.011,-0.005
210776,-0.661,-1.159,-9.383,-0.005,0.012,-0.006
210879,-0.649,-1.168,-9.385,-0.005,0.012,-0.005
210982,-0.654,-1.168,-9.376,-0.005,0.011,-0.005
211085,-0.656,-1.171,-9.376,-0.005,0.012,-0.006
211188,-0.654,-1.171,-9.395,-0.005,0.012,-0.006
211291,-0.649,-1.166,-9.38,-0.005,0.012,-0.005
211394,-0.649,-1.166,-9.38,-0.004,0.012,-0.006
211497,-0.663,-1.171,-9.359,-0.005,0.012,-0.005
211600,-0.661,-1.161,-9.39,-0.005,0.012,-0.006
211703,-0.663,-1.171,-9.385,-0.005,0.012,-0.005
211806,-0.651,-1.171,-9.369,-0.005,0.012,-0.005
211909,-0.663,-1.171,-9.38,-0.005,0.012,-0.006
212012,-0.654,-1.171,-9.385,-0.005,0.012,-0.005
212115,-0.656,-1.154,-9.378,-0.005,0.012,-0.006
212218,-0.651,-1.166,-9.369,-0.005,0.012,-0.005
212321,-0.663,-1.166,-9.366,-0.005,0.012,-0.005
212424,-0.646,-1.164,-9.376,-0.005,0.012,-0.005
212527,-0.651,-1.173,-9.366,-0.005,0.012,-0.005
212630,-0.649,-1.159,-9.39,-0.005,0.012,-0.005
212733,-0.649,-1.159,-9.395,-0.005,0.011,-0.006
212836,-0.649,-1.171,-9.38,-0.004,0.012,-0.005
212939,-0.656,-1.159,-9.376,-0.005,0.012,-0.006
213042,-0.644,-1.168,-9.385,-0.005,0.012,-0.005
213145,-0.649,-1.166,-9.383,-0.005,0.011,-0.006
213248,-0.656,-1.161,-9.395,-0.005,0.012,-0.006
213351,-0.663,-1.164,-9.383,-0.005,0.011,-0.006
213454,-0.658,-1.159,-9.395,-0.005,0.012,-0.006
213557,-0.675,-1.161,-9.388,-0.005,0.011,-0.006
213660,-0.656,-1.166,-9.383,-0.004,0.011,-0.005
213763,-0.666,-1.159,-9.366,-0.005,0.011,-0.005
213866,-0.661,-1.159,-9.38,-0.005,0.011,-0.006
213969,-0.658,-1.173,-9.383,-0.004,0.012,-0.005
214072,-0.663,-1.159,-9.392,-0.005,0.011,-0.005
214175,-0.658,-1.164,-9.39,-0.005,0.012,-0.006
214278,-0.663,-1.168,-9.38,-0.005,0.012,-0.006
214381,-0.649,-1.164,-9.385,-0.005,0.012,-0.005
214484,-0.661,-1.164,-9.376,-0.004,0.013,-0.006
214587,-0.661,-1.166,-9.385,-0.005,0.012,-0.005
214690,-0.661,-1.164,-9.373,-0.004,0.012,-0.006
214793,-0.661,-1.171,-9.378,-0.005,0.012,-0.006
214896,-0.649,-1.164,-9.373,-0.005,0.012,-0.005
214999,-0.654,-1.166,-9.378,-0.005,0.011,-0.006
215102,-0.651,-1.164,-9.39,-0.004,0.012,-0.005
215205,-0.646,-1.161,-9.39,-0.005,0.012,-0.005
215308,-0.658,-1.164,-9.373,-0.005,0.012,-0.006
215411,-0.651,-1.171,-9.376,-0.005,0.011,-0.005
215514,-0.663,-1.154,-9.369,-0.005,0.011,-0.005
215617,-0.658,-1.156,-9.376,-0.005,0.012,-0.006
215720,-0.654,-1.168,-9.369,-0.005,0.012,-0.006
215823,-0.644,-1.161,-9.38,-0.005,0.012,-0.006
215926,-0.651,-1.166,-9.361,-0.005,0.011,-0.006
216029,-0.646,-1.154,-9.359,-0.005,0.012,-0.006
216132,-0.661,-1.168,-9.38,-0.005,0.012,-0.005
216235,-0.658,-1.176,-9.376,-0.005,0.012,-0.006
216338,-0.658,-1.156,-9.378,-0.004,0.011,-0.006
216441,-0.654,-1.166,-9.376,-0.004,0.012,-0.005
216544,-0.656,-1.168,-9.364,-0.005,0.012,-0.005
216647,-0.658,-1.159,-9.378,-0.004,0.011,-0.006
216750,-0.654,-1.173,-9.39,-0.004,0.012,-0.005
216853,-0.658,-1.164,-9.388,-0.005,0.011,-0.005
216956,-0.649,-1.161,-9.39,-0.005,0.012,-0.006
217059,-0.654,-1.178,-9.388,-0.005,0.011,-0.006
217162,-0.656,-1.164,-9.385,-0.005,0.011,-0.005
217265,-0.654,-1.161,-9.376,-0.005,0.011,-0.006
217368,-0.646,-1.176,-9.378,-0.005,0.011,-0.006
217471,-0.656,-1.154,-9.38,-0.005,0.011,-0.005
217574,-0.654,-1.173,-9.385,-0.004,0.011,-0.006
217677,-0.661,-1.164,-9.39,-0.005,0.011,-0.005
217780,-0.649,-1.173,-9.385,-0.005,0.011,-0.005
217883,-0.649,-1.173,-9.369,-0.005,0.011,-0.005
217986,-0.656,-1.164,-9.38,-0.005,0.011,-0.005
218089,-0.644,-1.159,-9.378,-0.005,0.011,-0.005
218192,-0.651,-1.171,-9.378,-0.004,0.011,-0.006
218295,-0.651,-1.168,-9.364,-0.005,0.011,-0.005
218398,-0.649,-1.168,-9.366,-0.005,0.012,-0.005
218501,-0.661,-1.164,-9.388,-0.005,0.011,-0.006
218604,-0.654,-1.164,-9.376,-0.005,0.012,-0.005
218707,-0.651,-1.178,-9.376,-0.005,0.012,-0.006
218810,-0.654,-1.166,-9.369,-0.005,0.012,-0.005
218913,-0.651,-1.171,-9.397,-0.005,0.011,-0.005
219016,-0.656,-1.168,-9.369,-0.005,0.011,-0.005
219119,-0.651,-1.161,-9.392,-0.004,0.012,-0.006
219222,-0.658,-1.168,-9.385,-0.005,0.012,-0.006
219325,-0.658,-1.176,-9.383,-0.005,0.011,-0.005
219428,-0.663,-1.166,-9.369,-0.005,0.012,-0.005
219531,-0.651,-1.173,-9.366,-0.004,0.011,-0.006
219634,-0.656,-1.164,-9.366,-0.005,0.011,-0.006
219737,-0.656,-1.161,-9.392,-0.005,0.012,-0.005
219840,-0.658,-1.168,-9.376,-0.005,0.011,-0.006
219943,-0.654,-1.171,-9.388,-0.005,0.012,-0.005
220046,-0.651,-1.164,-9.388,-0.005,0.012,-0.005
220149,-0.663,-1.171,-9.38,-0.005,0.011,-0.006
220252,-0.661,-1.152,-9.378,-0.005,0.012,-0.006
220355,-0.649,-1.161,-9.385,-0.005,0.012,-0.006
220458,-0.651,-1.156,-9.39,-0.005,0.012,-0.005
220561,-0.651,-1.154,-9.383,-0.005,0.011,-0.006
220664,-0.656,-1.171,-9.388,-0.004,0.012,-0.006
220767,-0.656,-1.164,-9.378,-0.005,0.012,-0.005
220870,-0.656,-1.161,-9.371,-0.005,0.012,-0.006
220973,-0.654,-1.161,-9.38,-0.004,0.012,-0.005
221076,-0.658,-1.171,-9.38,-0.005,0.012,-0.005
221179,-0.646,-1.168,-9.38,-0.004,0.011,-0.006
221282,-0.656,-1.18,-9.388,-0.005,0.012,-0.005
221385,-0.654,-1.161,-9.385,-0.004,0.011,-0.005
221488,-0.668,-1.164,-9.392,-0.005,0.011,-0.006
221591,-0.649,-1.159,-9.38,-0.005,0.012,-0.005
221694,-0.658,-1.161,-9.383,-0.005,0.012,-0.006
221797,-0.656,-1.168,-9.376,-0.005,0.011,-0.006
221900,-0.654,-1.161,-9.376,-0.005,0.012,-0.005
222003,-0.646,-1.168,-9.378,-0.004,0.011,-0.006
222106,-0.656,-1.173,-9.383,-0.005,0.011,-0.006
222209,-0.658,-1.161,-9.39,-0.005,0.011,-0.005
222312,-0.649,-1.173,-9.383,-0.004,0.011,-0.006
222415,-0.661,-1.164,-9.39,-0.005,0.011,-0.005
222518,-0.654,-1.161,-9.38,-0.004,0.012,-0.005
222621,-0.658,-1.171,-9.383,-0.005,0.012,-0.006
222724,-0.658,-1.171,-9.373,-0.005,0.011,-0.006
222827,-0.658,-1.159,-9.38,-0.004,0.011,-0.005
222930,-0.656,-1.164,-9.388,-0.005,0.011,-0.006
223033,-0.668,-1.166,-9.383,-0.005,0.011,-0.006
223136,-0.649,-1.168,-9.38,-0.005,0.011,-0.006
223239,-0.658,-1.178,-9.397,-0.005,0.011,-0.005
223342,-0.646,-1.173,-9.385,-0.005,0.012,-0.005
223445,-0.658,-1.171,-9.385,-0.005,0.012,-0.005
223548,-0.651,-1.168,-9.39,-0.005,0.012,-0.005
223651,-0.651,-1.164,-9.39,-0.004,0.012,-0.005
223754,-0.658,-1.168,-9.383,-0.005,0.012,-0.005
223857,-0.649,-1.166,-9.373,-0.005,0.012,-0.006
223960,-0.661,-1.171,-9.39,-0.005,0.012,-0.006
224063,-0.656,-1.168,-9.383,-0.005,0.011,-0.006
224166,-0.666,-1.159,-9.378,-0.005,0.012,-0.005
224269,-0.656,-1.159,-9.376,-0.005,0.012,-0.005
224372,-0.658,-1.173,-9.385,-0.005,0.012,-0.006
224475,-0.656,-1.176,-9.364,-0.005,0.012,-0.005
224578,-0.656,-1.173,-9.371,-0.005,0.012,-0.006
224681,-0.656,-1.166,-9.373,-0.005,0.012,-0.006
224784,-0.656,-1.171,-9.378,-0.004,0.012,-0.006
224887,-0.656,-1.168,-9.392,-0.005,0.011,-0.006
224990,-0.654,-1.156,-9.388,-0.004,0.012,-0.006
225093,-0.654,-1.164,-9.373,-0.005,0.012,-0.006
225196,-0.649,-1.173,-9.376,-0.004,0.011,-0.006
225299,-0.656,-1.173,-9.39,-0.005,0.012,-0.006
225402,-0.656,-1.171,-9.38,-0.004,0.012,-0.005
225505,-0.654,-1.171,-9.39,-0.005,0.012,-0.005
225608,-0.649,-1.164,-9.388,-0.005,0.012,-0.006
225711,-0.663,-1.168,-9.378,-0.005,0.012,-0.006
225814,-0.656,-1.178,-9.38,-0.005,0.012,-0.006
225917,-0.651,-1.171,-9.392,-0.005,0.012,-0.006
226020,-0.654,-1.171,-9.39,-0.005,0.012,-0.006
226123,-0.658,-1.159,-9.376,-0.004,0.011,-0.006
226226,-0.658,-1.161,-9.376,-0.005,0.012,-0.006
226329,-0.654,-1.164,-9.371,-0.005,0.012,-0.005
226432,-0.658,-1.154,-9.383,-0.005,0.012,-0.005
226535,-0.661,-1.161,-9.371,-0.004,0.012,-0.006
226638,-0.654,-1.164,-9.376,-0.005,0.012,-0.005
226741,-0.654,-1.166,-9.383,-0.005,0.012,-0.006
226844,-0.656,-1.171,-9.378,-0.005,0.012,-0.006
226947,-0.658,-1.161,-9.38,-0.005,0.011,-0.005
227050,-0.661,-1.156,-9.383,-0.005,0.012,-0.006
227153,-0.658,-1.173,-9.385,-0.005,0.012,-0.006
227256,-0.654,-1.161,-9.38,-0.004,0.011,-0.005
227359,-0.658,-1.161,-9.38,-0.005,0.011,-0.006
227462,-0.663,-1.161,-9.376,-0.004,0.012,-0.005
227565,-0.666,-1.164,-9.376,-0.005,0.012,-0.005
227668,-0.646,-1.168,-9.385,-0.005,0.011,-0.005
227771,-0.658,-1.159,-9.385,-0.004,0.012,-0.005
227874,-0.661,-1.171,-9.38,-0.005,0.012,-0.006
227977,-0.663,-1.18,-9.378,-0.005,0.012,-0.005
228080,-0.656,-1.159,-9.385,-0.004,0.012,-0.005
228183,-0.656,-1.159,-9.376,-0.005,0.012,-0.006
228286,-0.651,-1.168,-9.385,-0.004,0.012,-0.005
228389,-0.658,-1.164,-9.378,-0.005,0.012,-0.005
228492,-0.651,-1.171,-9.385,-0.005,0.012,-0.005
228595,-0.661,-1.159,-9.376,-0.005,0.012,-0.006
228698,-0.658,-1.159,-9.376,-0.005,0.012,-0.006
228801,-0.658,-1.173,-9.369,-0.005,0.011,-0.005
228904,-0.654,-1.159,-9.38,-0.005,0.012,-0.005
229007,-0.654,-1.166,-9.395,-0.005,0.011,-0.006
229110,-0.651,-1.171,-9.359,-0.005,0.011,-0.006
229213,-0.656,-1.152,-9.376,-0.005,0.011,-0.005
229316,-0.654,-1.154,-9.369,-0.005,0.011,-0.006
229419,-0.651,-1.168,-9.378,-0.005,0.012,-0.006
229522,-0.656,-1.164,-9.392,-0.005,0.011,-0.005
229625,-0.656,-1.164,-9.388,-0.005,0.011,-0.006
229728,-0.661,-1.164,-9.38,-0.005,0.011,-0.005
229831,-0.656,-1.159,-9.383,-0.005,0.012,-0.005
229934,-0.656,-1.171,-9.385,-0.005,0.012,-0.005
230037,-0.649,-1.166,-9.385,-0.005,0.012,-0.005
230140,-0.661,-1.168,-9.376,-0.005,0.011,-0.006
230243,-0.654,-1.173,-9.361,-0.004,0.012,-0.006
230346,-0.658,-1.159,-9.366,-0.005,0.012,-0.005
230449,-0.658,-1.168,-9.376,-0.005,0.011,-0.006
230552,-0.661,-1.168,-9.376,-0.005,0.012,-0.005
230655,-0.658,-1.168,-9.388,-0.005,0.012,-0.005
230758,-0.654,-1.168,-9.39,-0.005,0.011,-0.006
230861,-0.656,-1.161,-9.397,-0.005,0.012,-0.005
230964,-0.658,-1.152,-9.383,-0.004,0.012,-0.005
231067,-0.656,-1.168,-9.38,-0.004,0.012,-0.006
231170,-0.661,-1.159,-9.376,-0.005,0.012,-0.005
231273,-0.656,-1.164,-9.373,-0.005,0.012,-0.006
231376,-0.658,-1.168,-9.376,-0.005,0.011,-0.005
231479,-0.649,-1.161,-9.388,-0.005,0.011,-0.005
231582,-0.654,-1.164,-9.378,-0.004,0.011,-0.005
231685,-0.663,-1.166,-9.39,-0.005,0.011,-0.005
231788,-0.656,-1.166,-9.378,-0.005,0.011,-0.006
231891,-0.649,-1.161,-9.385,-0.005,0.012,-0.005
231994,-0.661,-1.161,-9.392,-0.005,0.012,-0.006
232097,-0.661,-1.173,-9.376,-0.005,0.011,-0.006
232200,-0.656,-1.173,-9.376,-0.004,0.012,-0.006
232303,-0.666,-1.166,-9.366,-0.005,0.012,-0.005
232406,-0.658,-1.176,-9.383,-0.005,0.011,-0.006
232509,-0.654,-1.171,-9.376,-0.005,0.012,-0.006
232612,-0.651,-1.159,-9.383,-0.005,0.012,-0.006
232715,-0.67,-1.171,-9.378,-0.005,0.012,-0.006
232818,-0.656,-1.171,-9.395,-0.005,0.012,-0.006
232921,-0.651,-1.156,-9.38,-0.005,0.012,-0.006
233024,-0.661,-1.171,-9.378,-0.004,0.011,-0.005
233127,-0.666,-1.161,-9.38,-0.005,0.012,-0.005
233230,-0.656,-1.178,-9.385,-0.005,0.011,-0.006
233333,-0.654,-1.164,-9.38,-0.005,0.011,-0.005
233436,-0.654,-1.156,-9.373,-0.005,0.012,-0.006
233539,-0.644,-1.164,-9.39,-0.005,0.012,-0.006
233642,-0.658,-1.166,-9.38,-0.005,0.012,-0.005
233745,-0.666,-1.159,-9.397,-0.005,0.011,-0.005
233848,-0.651,-1.168,-9.373,-0.005,0.011,-0.006
233951,-0.651,-1.168,-9.357,-0.005,0.012,-0.005
234054,-0.661,-1.161,-9.385,-0.005,0.012,-0.005
234157,-0.661,-1.159,-9.385,-0.005,0.012,-0.006
234260,-0.656,-1.161,-9.359,-0.005,0.012,-0.005
234363,-0.654,-1.168,-9.378,-0.005,0.011,-0.005
234466,-0.654,-1.171,-9.4,-0.005,0.012,-0.006
234569,-0.663,-1.161,-9.395,-0.005,0.012,-0.006
234672,-0.654,-1.164,-9.376,-0.005,0.012,-0.006
234775,-0.656,-1.168,-9.38,-0.005,0.012,-0.005
234878,-0.654,-1.156,-9.369,-0.005,0.012,-0.005
234981,-0.663,-1.176,-9.383,-0.005,0.011,-0.006
235084,-0.646,-1.166,-9.378,-0.005,0.012,-0.005
235187,-0.651,-1.159,-9.388,-0.005,0.012,-0.006
235290,-0.658,-1.176,-9.388,-0.005,0.011,-0.006
235393,-0.658,-1.164,-9.388,-0.005,0.012,-0.006
235496,-0.656,-1.178,-9.385,-0.005,0.012,-0.006
235599,-0.656,-1.152,-9.373,-0.004,0.011,-0.005
235702,-0.651,-1.164,-9.388,-0.005,0.012,-0.005
235805,-0.656,-1.173,-9.376,-0.005,0.012,-0.006
235908,-0.663,-1.159,-9.385,-0.004,0.011,-0.005
236011,-0.658,-1.164,-9.378,-0.005,0.012,-0.005
236114,-0.649,-1.18,-9.373,-0.005,0.011,-0.006
236217,-0.661,-1.168,-9.395,-0.005,0.012,-0.005
236320,-0.656,-1.159,-9.383,-0.005,0.011,-0.006
236423,-0.656,-1.154,-9.397,-0.005,0.011,-0.005
236526,-0.661,-1.166,-9.378,-0.004,0.012,-0.005
236629,-0.651,-1.173,-9.38,-0.005,0.011,-0.006
236732,-0.656,-1.173,-9.364,-0.005,0.011,-0.005
236835,-0.651,-1.164,-9.38,-0.005,0.012,-0.005
236938,-0.651,-1.166,-9.388,-0.005,0.011,-0.006
237041,-0.654,-1.161,-9.383,-0.005,0.012,-0.006
237144,-0.649,-1.168,-9.378,-0.005,0.012,-0.005
237247,-0.668,-1.173,-9.369,-0.005,0.012,-0.006
237350,-0.658,-1.161,-9.385,-0.005,0.011,-0.005
237453,-0.649,-1.171,-9.378,-0.004,0.012,-0.005
237556,-0.663,-1.18,-9.385,-0.005,0.011,-0.005
237659,-0.654,-1.166,-9.38,-0.005,0.011,-0.006
237762,-0.649,-1.168,-9.38,-0.004,0.012,-0.006
237865,-0.654,-1.168,-9.371,-0.005,0.012,-0.005
237968,-0.668,-1.173,-9.376,-0.004,0.011,-0.005
238071,-0.658,-1.171,-9.373,-0.005,0.011,-0.005
238174,-0.656,-1.168,-9.378,-0.005,0.011,-0.005
238277,-0.649,-1.168,-9.39,-0.005,0.012,-0.006
238380,-0.656,-1.161,-9.378,-0.005,0.011,-0.006
238483,-0.663,-1.168,-9.373,-0.005,0.011,-0.006
238586,-0.666,-1.168,-9.38,-0.005,0.012,-0.006
238689,-0.658,-1.171,-9.383,-0.005,0.011,-0.006
238792,-0.654,-1.159,-9.38,-0.005,0.012,-0.006
238895,-0.661,-1.166,-9.38,-0.004,0.011,-0.005
238998,-0.654,-1.156,-9.38,-0.005,0.012,-0.005
239101,-0.642,-1.168,-9.385,-0.005,0.012,-0.006
239204,-0.658,-1.176,-9.378,-0.005,0.011,-0.006
239307,-0.649,-1.161,-9.376,-0.005,0.012,-0.005
239410,-0.661,-1.168,-9.392,-0.005,0.011,-0.006
239513,-0.644,-1.171,-9.38,-0.005,0.012,-0.005
239616,-0.649,-1.156,-9.383,-0.004,0.012,-0.005
239719,-0.656,-1.164,-9.39,-0.004,0.011,-0.006
239822,-0.661,-1.168,-9.404,-0.005,0.012,-0.005
239925,-0.661,-1.171,-9.376,-0.005,0.012,-0.005
240028,-0.666,-1.166,-9.39,-0.005,0.011,-0.006
240131,-0.658,-1.166,-9.404,-0.005,0.012,-0.006
240234,-0.651,-1.168,-9.402,-0.005,0.012,-0.006
240337,-0.649,-1.176,-9.392,-0.005,0.012,-0.005
240440,-0.654,-1.154,-9.371,-0.005,0.012,-0.005
240543,-0.654,-1.164,-9.388,-0.005,0.011,-0.006
240646,-0.639,-1.171,-9.392,-0.005,0.012,-0.005
240749,-0.661,-1.161,-9.373,-0.005,0.012,-0.005
240852,-0.656,-1.164,-9.378,-0.005,0.012,-0.006
240955,-0.663,-1.161,-9.392,-0.005,0.011,-0.005
241058,-0.646,-1.164,-9.39,-0.005,0.011,-0.006
241161,-0.663,-1.171,-9.376,-0.005,0.011,-0.006
241264,-0.658,-1.166,-9.376,-0.005,0.011,-0.005
241367,-0.654,-1.171,-9.383,-0.005,0.012,-0.005
241470,-0.644,-1.171,-9.397,-0.004,0.012,-0.006
241573,-0.666,-1.171,-9.378,-0.004,0.012,-0.005
241676,-0.661,-1.176,-9.376,-0.005,0.012,-0.006
241779,-0.661,-1.161,-9.373,-0.005,0.011,-0.005
241882,-0.663,-1.156,-9.388,-0.005,0.012,-0.005
241985,-0.654,-1.166,-9.388,-0.005,0.011,-0.005
242088,-0.658,-1.168,-9.378,-0.005,0.012,-0.005
242191,-0.658,-1.156,-9.371,-0.005,0.012,-0.006
242294,-0.649,-1.173,-9.378,-0.004,0.011,-0.006
242397,-0.663,-1.159,-9.378,-0.005,0.012,-0.006
242500,-0.651,-1.164,-9.385,-0.005,0.012,-0.005
242603,-0.658,-1.159,-9.38,-0.005,0.012,-0.005
242706,-0.654,-1.164,-9.38,-0.005,0.011,-0.005
242809,-0.649,-1.166,-9.385,-0.004,0.012,-0.006
242912,-0.654,-1.166,-9.373,-0.005,0.012,-0.005
243015,-0.658,-1.152,-9.383,-0.004,0.011,-0.006
243118,-0.654,-1.166,-9.385,-0.005,0.012,-0.005
243221,-0.651,-1.154,-9.376,-0.005,0.011,-0.005
243324,-0.661,-1.164,-9.38,-0.004,0.012,-0.006
243427,-0.656,-1.171,-9.39,-0.004,0.011,-0.005
243530,-0.658,-1.161,-9.369,-0.005,0.012,-0.005
243633,-0.654,-1.171,-9.385,-0.005,0.012,-0.005
243736,-0.651,-1.161,-9.378,-0.005,0.011,-0.005
243839,-0.654,-1.164,-9.388,-0.005,0.011,-0.005
243942,-0.656,-1.166,-9.376,-0.005,0.011,-0.006
244045,-0.654,-1.159,-9.373,-0.005,0.012,-0.005
244148,-0.654,-1.171,-9.373,-0.005,0.012,-0.006
244251,-0.658,-1.168,-9.392,-0.005,0.011,-0.005
244354,-0.663,-1.159,-9.388,-0.005,0.012,-0.005
244457,-0.661,-1.171,-9.38,-0.005,0.012,-0.006
244560,-0.651,-1.168,-9.383,-0.005,0.012,-0.006
244663,-0.649,-1.166,-9.388,-0.005,0.012,-0.006
244766,-0.654,-1.159,-9.373,-0.005,0.012,-0.006
244869,-0.654,-1.168,-9.4,-0.005,0.012,-0.005
244972,-0.658,-1.168,-9.383,-0.005,0.011,-0.006
245075,-0.654,-1.171,-9.392,-0.005,0.011,-0.006
245178,-0.654,-1.161,-9.369,-0.005,0.012,-0.005
245281,-0.656,-1.171,-9.383,-0.005,0.012,-0.006
245384,-0.668,-1.161,-9.388,-0.004,0.012,-0.006
245487,-0.663,-1.159,-9.38,-0.005,0.012,-0.005
245590,-0.658,-1.173,-9.38,-0.005,0.012,-0.006
245693,-0.649,-1.164,-9.38,-0.005,0.012,-0.006
245796,-0.666,-1.166,-9.385,-0.005,0.012,-0.005
245899,-0.658,-1.168,-9.366,-0.005,0.011,-0.006
246002,-0.661,-1.166,-9.38,-0.005,0.011,-0.005
246105,-0.651,-1.173,-9.373,-0.005,0.012,-0.006
246208,-0.663,-1.176,-9.376,-0.005,0.011,-0.005
246311,-0.661,-1.166,-9.388,-0.005,0.012,-0.006
246414,-0.661,-1.166,-9.369,-0.005,0.011,-0.005
246517,-0.656,-1.168,-9.383,-0.005,0.011,-0.006
246620,-0.646,-1.161,-9.38,-0.005,0.011,-0.006
246723,-0.654,-1.164,-9.388,-0.004,0.011,-0.006
246826,-0.654,-1.171,-9.378,-0.005,0.011,-0.006
246929,-0.654,-1.156,-9.378,-0.005,0.012,-0.006
247032,-0.654,-1.18,-9.38,-0.005,0.012,-0.005
247135,-0.654,-1.166,-9.392,-0.005,0.012,-0.005
247238,-0.656,-1.166,-9.392,-0.005,0.012,-0.005
247341,-0.656,-1.171,-9.378,-0.005,0.011,-0.005
247444,-0.656,-1.161,-9.385,-0.005,0.011,-0.005
247547,-0.663,-1.164,-9.383,-0.005,0.012,-0.006
247650,-0.656,-1.159,-9.385,-0.005,0.012,-0.006
247753,-0.663,-1.156,-9.39,-0.005,0.012,-0.005
247856,-0.651,-1.173,-9.395,-0.005,0.011,-0.006
247959,-0.651,-1.154,-9.376,-0.005,0.012,-0.005
248062,-0.656,-1.166,-9.361,-0.005,0.012,-0.005
248165,-0.656,-1.171,-9.38,-0.005,0.012,-0.005
248268,-0.658,-1.154,-9.383,-0.005,0.011,-0.006
248371,-0.654,-1.168,-9.366,-0.004,0.011,-0.006
248474,-0.649,-1.166,-9.392,-0.005,0.011,-0.006
248577,-0.661,-1.164,-9.38,-0.005,0.012,-0.005
248680,-0.658,-1.156,-9.373,-0.005,0.012,-0.006
248783,-0.649,-1.159,-9.385,-0.005,0.011,-0.006
248886,-0.656,-1.159,-9.385,-0.005,0.012,-0.006
248989,-0.654,-1.183,-9.385,-0.004,0.012,-0.006
249092,-0.661,-1.164,-9.376,-0.005,0.012,-0.005
249195,-0.661,-1.164,-9.376,-0.005,0.012,-0.006
249298,-0.666,-1.168,-9.395,-0.005,0.012,-0.006
249401,-0.658,-1.156,-9.392,-0.005,0.012,-0.006
249504,-0.661,-1.171,-9.373,-0.005,0.012,-0.005
249607,-0.654,-1.161,-9.369,-0.005,0.012,-0.006
249710,-0.658,-1.156,-9.38,-0.005,0.011,-0.005
249813,-0.663,-1.171,-9.395,-0.005,0.012,-0.005
249916,-0.658,-1.164,-9.385,-0.005,0.012,-0.006
250019,-0.654,-1.164,-9.385,-0.004,0.012,-0.006
250122,-0.658,-1.176,-9.388,-0.005,0.011,-0.005
250225,-0.666,-1.168,-9.373,-0.005,0.012,-0.005
250328,-0.658,-1.164,-9.383,-0.004,0.012,-0.006
250431,-0.649,-1.173,-9.371,-0.005,0.011,-0.006
250534,-0.661,-1.164,-9.39,-0.005,0.012,-0.005
250637,-0.666,-1.166,-9.392,-0.005,0.012,-0.005
250740,-0.658,-1.171,-9.385,-0.005,0.012,-0.005
250843,-0.661,-1.164,-9.373,-0.004,0.012,-0.006
250946,-0.644,-1.171,-9.371,-0.005,0.012,-0.006
251049,-0.658,-1.161,-9.392,-0.005,0.011,-0.005
251152,-0.646,-1.161,-9.373,-0.005,0.012,-0.006
251255,-0.656,-1.171,-9.388,-0.005,0.012,-0.006
251358,-0.649,-1.159,-9.385,-0.005,0.012,-0.006
251461,-0.658,-1.166,-9.373,-0.005,0.012,-0.005
251564,-0.649,-1.166,-9.39,-0.005,0.012,-0.005
251667,-0.656,-1.159,-9.383,-0.005,0.012,-0.006
251770,-0.663,-1.166,-9.39,-0.005,0.012,-0.005
251873,-0.656,-1.168,-9.366,-0.004,0.011,-0.005
251976,-0.668,-1.166,-9.383,-0.005,0.012,-0.005
252079,-0.663,-1.171,-9.388,-0.004,0.012,-0.005
252182,-0.656,-1.166,-9.385,-0.005,0.012,-0.005
252285,-0.656,-1.168,-9.38,-0.005,0.011,-0.005
252388,-0.658,-1.161,-9.373,-0.005,0.011,-0.006
252491,-0.654,-1.166,-9.376,-0.004,0.012,-0.006
252594,-0.658,-1.168,-9.388,-0.005,0.012,-0.005
252697,-0.658,-1.164,-9.39,-0.004,0.012,-0.005
252800,-0.666,-1.161,-9.376,-0.005,0.012,-0.005
252903,-0.656,-1.168,-9.38,-0.005,0.012,-0.005
253006,-0.656,-1.173,-9.39,-0.005,0.011,-0.005
253109,-0.656,-1.173,-9.38,-0.005,0.012,-0.006
253212,-0.663,-1.171,-9.392,-0.005,0.011,-0.005
253315,-0.666,-1.173,-9.38,-0.005,0.012,-0.005
253418,-0.656,-1.161,-9.369,-0.005,0.012,-0.006
253521,-0.666,-1.168,-9.392,-0.005,0.012,-0.005
253624,-0.658,-1.159,-9.378,-0.005,0.012,-0.005
253727,-0.656,-1.173,-9.385,-0.005,0.011,-0.005
253830,-0.649,-1.171,-9.38,-0.005,0.011,-0.005
253933,-0.661,-1.166,-9.373,-0.005,0.012,-0.005
254036,-0.654,-1.173,-9.373,-0.005,0.012,-0.006
254139,-0.651,-1.164,-9.388,-0.005,0.011,-0.006
254242,-0.656,-1.168,-9.383,-0.005,0.012,-0.005
254345,-0.651,-1.161,-9.385,-0.005,0.011,-0.006
254448,-0.644,-1.173,-9.366,-0.005,0.011,-0.005
254551,-0.666,-1.176,-9.369,-0.005,0.012,-0.006
254654,-0.658,-1.159,-9.376,-0.005,0.012,-0.005
254757,-0.656,-1.166,-9.395,-0.005,0.011,-0.006
254860,-0.661,-1.168,-9.38,-0.004,0.011,-0.006
254963,-0.661,-1.168,-9.38,-0.005,0.012,-0.005
255066,-0.663,-1.166,-9.38,-0.004,0.012,-0.005
255169,-0.646,-1.176,-9.38,-0.005,0.012,-0.005
255272,-0.649,-1.164,-9.378,-0.005,0.012,-0.005
255375,-0.651,-1.164,-9.383,-0.005,0.011,-0.006
255478,-0.656,-1.168,-9.397,-0.005,0.011,-0.005
255581,-0.656,-1.166,-9.383,-0.005,0.011,-0.006
255684,-0.658,-1.166,-9.404,-0.005,0.012,-0.005
255787,-0.658,-1.159,-9.388,-0.005,0.011,-0.005
255890,-0.654,-1.171,-9.388,-0.004,0.011,-0.006
255993,-0.661,-1.171,-9.369,-0.005,0.012,-0.006
256096,-0.666,-1.164,-9.388,-0.005,0.012,-0.005
256199,-0.658,-1.164,-9.373,-0.005,0.012,-0.006
256302,-0.663,-1.164,-9.383,-0.005,0.012,-0.006
256405,-0.666,-1.152,-9.39,-0.005,0.011,-0.006
256508,-0.649,-1.166,-9.388,-0.005,0.012,-0.006
256611,-0.658,-1.164,-9.392,-0.005,0.012,-0.006
256714,-0.666,-1.149,-9.371,-0.005,0.012,-0.005
256817,-0.644,-1.164,-9.388,-0.005,0.011,-0.005
256920,-0.654,-1.173,-9.385,-0.004,0.012,-0.006
257023,-0.656,-1.18,-9.373,-0.005,0.011,-0.006
257126,-0.649,-1.173,-9.364,-0.005,0.012,-0.005
257229,-0.661,-1.159,-9.38,-0.005,0.012,-0.005
257332,-0.654,-1.159,-9.383,-0.005,0.011,-0.005
257435,-0.656,-1.161,-9.361,-0.005,0.011,-0.006
257538,-0.658,-1.173,-9.378,-0.005,0.011,-0.005
257641,-0.663,-1.168,-9.385,-0.005,0.012,-0.006
257744,-0.646,-1.173,-9.369,-0.005,0.012,-0.006
257847,-0.656,-1.156,-9.39,-0.005,0.011,-0.006
257950,-0.656,-1.173,-9.39,-0.005,0.012,-0.006
258053,-0.673,-1.166,-9.378,-0.005,0.012,-0.005
258156,-0.658,-1.156,-9.388,-0.004,0.012,-0.006
258259,-0.651,-1.161,-9.385,-0.005,0.011,-0.005
258362,-0.644,-1.161,-9.38,-0.005,0.012,-0.006
258465,-0.656,-1.166,-9.385,-0.005,0.011,-0.006
258568,-0.663,-1.168,-9.383,-0.005,0.011,-0.006
258671,-0.654,-1.161,-9.378,-0.005,0.012,-0.006
258774,-0.646,-1.171,-9.378,-0.005,0.012,-0.006
258877,-0.656,-1.168,-9.378,-0.005,0.012,-0.006
258980,-0.651,-1.156,-9.397,-0.005,0.012,-0.006
259083,-0.67,-1.168,-9.38,-0.005,0.011,-0.005
259186,-0.661,-1.164,-9.376,-0.005,0.012,-0.006
259289,-0.654,-1.171,-9.376,-0.005,0.011,-0.006
259392,-0.658,-1.176,-9.376,-0.005,0.011,-0.006
259495,-0.661,-1.176,-9.369,-0.005,0.012,-0.006
259598,-0.656,-1.171,-9.392,-0.005,0.012,-0.006
259701,-0.663,-1.161,-9.38,-0.005,0.011,-0.006
259804,-0.661,-1.164,-9.371,-0.005,0.011,-0.006
259907,-0.654,-1.161,-9.38,-0.005,0.012,-0.006
260010,-0.646,-1.164,-9.373,-0.005,0.012,-0.005
260113,-0.639,-1.168,-9.378,-0.005,0.011,-0.006
260216,-0.654,-1.168,-9.376,-0.004,0.012,-0.006
260319,-0.661,-1.168,-9.388,-0.005,0.011,-0.006
260422,-0.642,-1.166,-9.376,-0.005,0.012,-0.006
260525,-0.651,-1.168,-9.371,-0.005,0.012,-0.006
260628,-0.661,-1.166,-9.373,-0.005,0.011,-0.005
260731,-0.663,-1.178,-9.392,-0.005,0.011,-0.005
260834,-0.649,-1.176,-9.392,-0.005,0.012,-0.006
260937,-0.654,-1.164,-9.38,-0.005,0.012,-0.006
261040,-0.658,-1.168,-9.39,-0.005,0.012,-0.006
261143,-0.654,-1.166,-9.369,-0.005,0.011,-0.005
261246,-0.651,-1.159,-9.397,-0.005,0.012,-0.006
261349,-0.656,-1.171,-9.371,-0.005,0.012,-0.006
261452,-0.661,-1.164,-9.385,-0.005,0.012,-0.005
261555,-0.651,-1.173,-9.383,-0.005,0.011,-0.006
