time (ms),acceleration x,acceleration y,acceleration z,gyro x,gyro y,gyro z
656,-0.599,-0.182,-9.443,-0.004,0.012,-0.006
759,-0.601,-0.18,-9.426,-0.004,0.012,-0.005
862,-0.608,-0.172,-9.428,-0.005,0.012,-0.006
965,-0.606,-0.18,-9.438,-0.004,0.011,-0.006
1068,-0.601,-0.18,-9.436,-0.004,0.012,-0.006
1171,-0.606,-0.17,-9.433,-0.004,0.012,-0.006
1274,-0.589,-0.177,-9.428,-0.005,0.012,-0.006
1377,-0.606,-0.18,-9.426,-0.004,0.011,-0.006
1480,-0.606,-0.177,-9.436,-0.004,0.011,-0.006
1583,-0.611,-0.175,-9.443,-0.006,0.009,-0.006
1686,-0.603,-0.184,-9.424,-0.004,0.01,-0.007
1789,-0.603,-0.184,-9.431,-0.005,0.011,-0.006
1892,-0.613,-0.184,-9.433,-0.005,0.011,-0.006
1995,-0.615,-0.184,-9.436,-0.004,0.012,-0.006
2098,-0.608,-0.168,-9.448,-0.005,0.011,-0.006
2201,-0.611,-0.175,-9.431,-0.005,0.011,-0.006
2304,-0.603,-0.177,-9.428,-0.005,0.011,-0.006
2407,-0.608,-0.177,-9.414,-0.005,0.011,-0.006
2510,-0.613,-0.18,-9.428,-0.005,0.011,-0.006
2613,-0.613,-0.172,-9.436,-0.004,0.012,-0.006
2716,-0.606,-0.163,-9.44,-0.004,0.011,-0.006
2819,-0.611,-0.182,-9.436,-0.004,0.011,-0.006
2922,-0.613,-0.175,-9.419,-0.004,0.012,-0.006
3025,-0.606,-0.177,-9.426,-0.005,0.011,-0.006
3128,-0.613,-0.175,-9.424,-0.005,0.011,-0.006
3231,-0.611,-0.182,-9.436,-0.005,0.011,-0.006
3334,-0.601,-0.182,-9.436,-0.005,0.011,-0.006
3437,-0.603,-0.18,-9.438,-0.004,0.012,-0.006
3540,-0.608,-0.175,-9.431,-0.005,0.012,-0.006
3643,-0.615,-0.18,-9.419,-0.005,0.012,-0.006
3746,-0.608,-0.187,-9.426,-0.004,0.011,-0.006
3849,-0.603,-0.18,-9.431,-0.004,0.011,-0.006
3952,-0.608,-0.172,-9.421,-0.004,0.012,-0.006
4055,-0.603,-0.18,-9.428,-0.004,0.012,-0.006
4158,-0.599,-0.182,-9.426,-0.004,0.011,-0.006
4261,-0.613,-0.163,-9.443,-0.005,0.011,-0.006
4364,-0.608,-0.177,-9.428,-0.004,0.011,-0.006
4467,-0.599,-0.17,-9.438,-0.004,0.011,-0.006
4570,-0.608,-0.18,-9.426,-0.005,0.011,-0.006
4673,-0.603,-0.172,-9.45,-0.004,0.011,-0.006
4776,-0.603,-0.175,-9.44,-0.004,0.011,-0.006
4879,-0.608,-0.177,-9.431,-0.004,0.011,-0.006
4982,-0.615,-0.184,-9.438,-0.004,0.012,-0.006
5085,-0.608,-0.182,-9.443,-0.004,0.011,-0.006
5188,-0.606,-0.182,-9.448,-0.004,0.011,-0.006
5291,-0.606,-0.182,-9.433,-0.004,0.012,-0.006
5394,-0.618,-0.187,-9.428,-0.005,0.011,-0.006
5497,-0.599,-0.184,-9.443,-0.003,0.011,-0.007
5600,-0.611,-0.175,-9.445,-0.004,0.012,-0.006
5703,-0.603,-0.18,-9.448,-0.004,0.011,-0.006
5806,-0.603,-0.175,-9.436,-0.004,0.011,-0.006
5909,-0.608,-0.168,-9.438,-0.005,0.012,-0.006
6012,-0.608,-0.182,-9.44,-0.004,0.012,-0.006
6115,-0.613,-0.168,-9.443,-0.004,0.012,-0.006
6218,-0.601,-0.172,-9.443,-0.005,0.012,-0.006
6321,-0.594,-0.182,-9.445,-0.005,0.011,-0.006
6424,-0.599,-0.165,-9.445,-0.005,0.011,-0.006
6527,-0.599,-0.182,-9.44,-0.005,0.012,-0.006
6630,-0.611,-0.18,-9.424,-0.004,0.012,-0.006
6733,-0.601,-0.175,-9.445,-0.005,0.012,-0.006
6836,-0.608,-0.17,-9.438,-0.004,0.011,-0.006
6939,-0.611,-0.177,-9.44,-0.004,0.011,-0.006
7042,-0.611,-0.16,-9.438,-0.004,0.011,-0.006
7145,-0.608,-0.177,-9.426,-0.004,0.012,-0.006
7248,-0.601,-0.182,-9.438,-0.004,0.012,-0.006
7351,-0.611,-0.17,-9.436,-0.004,0.011,-0.006
7454,-0.608,-0.18,-9.421,-0.004,0.011,-0.006
7557,-0.611,-0.17,-9.426,-0.005,0.011,-0.006
7660,-0.608,-0.172,-9.431,-0.004,0.011,-0.006
7763,-0.601,-0.192,-9.433,-0.005,0.011,-0.006
7866,-0.611,-0.182,-9.438,-0.004,0.011,-0.006
7969,-0.603,-0.177,-9.445,-0.004,0.011,-0.006
8072,-0.611,-0.172,-9.443,-0.005,0.011,-0.006
8175,-0.611,-0.175,-9.433,-0.005,0.011,-0.006
8278,-0.603,-0.184,-9.438,-0.005,0.011,-0.006
8381,-0.62,-0.18,-9.436,-0.004,0.012,-0.006
8484,-0.603,-0.175,-9.431,-0.004,0.011,-0.006
8587,-0.603,-0.18,-9.438,-0.004,0.011,-0.006
8690,-0.611,-0.177,-9.426,-0.004,0.012,-0.006
8793,-0.606,-0.184,-9.431,-0.004,0.012,-0.006
8896,-0.611,-0.177,-9.44,-0.004,0.011,-0.006
8999,-0.606,-0.17,-9.428,-0.004,0.012,-0.006
9102,-0.608,-0.168,-9.45,-0.004,0.011,-0.006
9205,-0.608,-0.17,-9.443,-0.004,0.011,-0.006
9308,-0.599,-0.18,-9.426,-0.005,0.011,-0.006
9411,-0.613,-0.182,-9.445,-0.005,0.011,-0.006
9514,-0.613,-0.184,-9.424,-0.005,0.011,-0.006
9617,-0.606,-0.175,-9.433,-0.005,0.011,-0.006
9720,-0.618,-0.18,-9.443,-0.005,0.012,-0.006
9823,-0.608,-0.168,-9.428,-0.005,0.011,-0.006
9926,-0.606,-0.17,-9.44,-0.004,0.011,-0.006
10029,-0.601,-0.175,-9.431,-0.005,0.011,-0.006
10132,-0.611,-0.163,-9.443,-0.004,0.012,-0.006
10235,-0.618,-0.17,-9.436,-0.005,0.012,-0.006
10338,-0.615,-0.18,-9.448,-0.004,0.011,-0.006
10441,-0.613,-0.18,-9.448,-0.004,0.011,-0.006
10544,-0.615,-0.18,-9.416,-0.004,0.011,-0.006
10647,-0.608,-0.182,-9.44,-0.004,0.012,-0.006
10750,-0.603,-0.182,-9.436,-0.004,0.011,-0.006
10853,-0.613,-0.182,-9.443,-0.005,0.011,-0.006
10956,-0.608,-0.184,-9.44,-0.005,0.011,-0.006
11059,-0.601,-0.168,-9.433,-0.004,0.011,-0.006
11162,-0.608,-0.18,-9.438,-0.005,0.012,-0.006
11265,-0.603,-0.189,-9.438,-0.005,0.011,-0.006
11368,-0.601,-0.177,-9.445,-0.005,0.011,-0.007
11471,-0.608,-0.177,-9.44,-0.004,0.012,-0.007
11574,-0.613,-0.182,-9.436,-0.004,0.011,-0.006
11677,-0.613,-0.175,-9.45,-0.005,0.011,-0.006
11780,-0.611,-0.172,-9.44,-0.005,0.012,-0.006
11883,-0.603,-0.18,-9.455,-0.004,0.012,-0.007
11986,-0.608,-0.184,-9.431,-0.004,0.011,-0.006
12089,-0.606,-0.168,-9.419,-0.005,0.011,-0.006
12192,-0.603,-0.177,-9.44,-0.005,0.012,-0.006
12295,-0.613,-0.18,-9.44,-0.004,0.011,-0.007
12398,-0.596,-0.168,-9.443,-0.004,0.011,-0.006
12501,-0.603,-0.172,-9.448,-0.005,0.012,-0.006
12604,-0.601,-0.17,-9.436,-0.005,0.011,-0.006
12707,-0.601,-0.17,-9.436,-0.004,0.011,-0.006
12810,-0.601,-0.175,-9.445,-0.004,0.012,-0.006
12913,-0.606,-0.175,-9.443,-0.004,0.011,-0.006
13016,-0.603,-0.172,-9.452,-0.004,0.012,-0.006
13119,-0.608,-0.177,-9.455,-0.005,0.011,-0.006
13222,-0.603,-0.18,-9.45,-0.004,0.011,-0.006
13325,-0.613,-0.184,-9.443,-0.005,0.011,-0.006
13428,-0.603,-0.175,-9.438,-0.005,0.012,-0.006
13531,-0.606,-0.17,-9.462,-0.005,0.012,-0.006
13634,-0.611,-0.182,-9.45,-0.005,0.011,-0.006
13737,-0.608,-0.175,-9.448,-0.004,0.011,-0.006
13840,-0.601,-0.172,-9.445,-0.004,0.011,-0.006
13943,-0.603,-0.177,-9.438,-0.005,0.011,-0.006
14046,-0.62,-0.17,-9.44,-0.005,0.011,-0.006
14149,-0.608,-0.18,-9.433,-0.004,0.011,-0.006
14252,-0.601,-0.175,-9.438,-0.004,0.011,-0.006
14355,-0.601,-0.182,-9.452,-0.005,0.011,-0.006
14458,-0.606,-0.182,-9.443,-0.004,0.012,-0.006
14561,-0.608,-0.182,-9.431,-0.004,0.011,-0.006
14664,-0.613,-0.184,-9.452,-0.004,0.012,-0.006
14767,-0.606,-0.194,-9.416,-0.005,0.012,-0.006
14870,-0.603,-0.177,-9.443,-0.004,0.011,-0.006
14973,-0.608,-0.172,-9.436,-0.004,0.012,-0.006
15076,-0.608,-0.18,-9.431,-0.004,0.012,-0.006
15179,-0.615,-0.17,-9.44,-0.004,0.011,-0.006
15282,-0.596,-0.172,-9.44,-0.005,0.011,-0.006
15385,-0.618,-0.172,-9.431,-0.005,0.011,-0.006
15488,-0.613,-0.18,-9.448,-0.004,0.011,-0.006
15591,-0.608,-0.177,-9.44,-0.004,0.012,-0.006
15694,-0.613,-0.18,-9.438,-0.004,0.011,-0.006
15797,-0.611,-0.172,-9.438,-0.004,0.011,-0.006
15900,-0.613,-0.175,-9.443,-0.004,0.012,-0.006
16003,-0.611,-0.177,-9.433,-0.004,0.011,-0.006
16106,-0.613,-0.182,-9.44,-0.004,0.011,-0.006
16209,-0.613,-0.168,-9.433,-0.004,0.012,-0.006
16312,-0.611,-0.177,-9.445,-0.004,0.011,-0.006
16415,-0.608,-0.189,-9.448,-0.005,0.012,-0.006
16518,-0.615,-0.163,-9.433,-0.004,0.012,-0.006
16621,-0.606,-0.148,-9.438,-0.004,0.011,-0.006
16724,-0.606,-0.199,-9.448,-0.004,0.012,-0.006
16827,-0.618,-0.158,-9.44,-0.005,0.012,-0.006
16930,-0.601,-0.172,-9.443,-0.004,0.012,-0.006
17033,-0.606,-0.184,-9.445,-0.005,0.011,-0.006
17136,-0.601,-0.177,-9.438,-0.004,0.012,-0.006
17239,-0.608,-0.17,-9.421,-0.004,0.011,-0.006
17342,-0.606,-0.175,-9.436,-0.004,0.012,-0.006
17445,-0.613,-0.175,-9.431,-0.005,0.011,-0.006
17548,-0.606,-0.18,-9.44,-0.004,0.012,-0.006
17651,-0.606,-0.172,-9.443,-0.004,0.012,-0.006
17754,-0.601,-0.175,-9.436,-0.004,0.011,-0.006
17857,-0.613,-0.17,-9.445,-0.004,0.011,-0.006
17960,-0.606,-0.172,-9.462,-0.005,0.012,-0.006
18063,-0.601,-0.18,-9.436,-0.004,0.011,-0.006
18166,-0.611,-0.192,-9.433,-0.004,0.012,-0.006
18269,-0.611,-0.172,-9.448,-0.005,0.011,-0.006
18372,-0.613,-0.177,-9.438,-0.004,0.012,-0.006
18475,-0.608,-0.182,-9.436,-0.005,0.011,-0.007
18578,-0.606,-0.175,-9.431,-0.005,0.011,-0.006
18681,-0.613,-0.177,-9.448,-0.005,0.012,-0.006
18784,-0.613,-0.175,-9.436,-0.004,0.011,-0.006
18887,-0.613,-0.17,-9.443,-0.004,0.012,-0.006
18990,-0.606,-0.177,-9.433,-0.005,0.011,-0.006
19093,-0.611,-0.18,-9.45,-0.004,0.012,-0.006
19196,-0.596,-0.177,-9.445,-0.004,0.012,-0.006
19299,-0.613,-0.18,-9.428,-0.004,0.012,-0.006
19402,-0.606,-0.175,-9.438,-0.004,0.011,-0.006
19505,-0.613,-0.177,-9.436,-0.004,0.011,-0.006
19608,-0.615,-0.177,-9.445,-0.004,0.011,-0.006
19711,-0.608,-0.168,-9.436,-0.004,0.011,-0.006
19814,-0.613,-0.177,-9.45,-0.004,0.011,-0.006
19917,-0.606,-0.172,-9.44,-0.005,0.011,-0.006
20020,-0.608,-0.17,-9.445,-0.004,0.012,-0.006
20123,-0.613,-0.182,-9.443,-0.004,0.012,-0.006
20226,-0.601,-0.175,-9.45,-0.005,0.012,-0.006
20329,-0.594,-0.175,-9.436,-0.005,0.011,-0.006
20432,-0.613,-0.175,-9.438,-0.004,0.011,-0.006
20535,-0.622,-0.172,-9.455,-0.004,0.012,-0.006
20638,-0.606,-0.182,-9.438,-0.004,0.011,-0.006
20741,-0.606,-0.175,-9.443,-0.004,0.011,-0.006
20844,-0.611,-0.172,-9.428,-0.005,0.011,-0.006
20947,-0.62,-0.177,-9.45,-0.004,0.012,-0.006
21050,-0.618,-0.175,-9.448,-0.005,0.011,-0.006
21153,-0.608,-0.172,-9.443,-0.004,0.012,-0.006
21256,-0.613,-0.184,-9.436,-0.004,0.012,-0.006
21359,-0.611,-0.17,-9.455,-0.004,0.011,-0.006
21462,-0.606,-0.175,-9.457,-0.005,0.011,-0.006
21565,-0.611,-0.177,-9.44,-0.004,0.011,-0.006
21668,-0.618,-0.177,-9.452,-0.004,0.011,-0.006
21771,-0.601,-0.168,-9.438,-0.004,0.012,-0.006
21874,-0.611,-0.18,-9.433,-0.005,0.011,-0.006
21977,-0.601,-0.187,-9.443,-0.004,0.011,-0.006
22080,-0.611,-0.177,-9.443,-0.004,0.012,-0.006
22183,-0.599,-0.168,-9.44,-0.005,0.012,-0.006
22286,-0.603,-0.175,-9.448,-0.004,0.012,-0.006
22389,-0.603,-0.177,-9.45,-0.004,0.011,-0.006
22492,-0.608,-0.172,-9.455,-0.004,0.011,-0.006
22595,-0.613,-0.168,-9.45,-0.004,0.011,-0.006
22698,-0.606,-0.18,-9.445,-0.005,0.012,-0.006
22801,-0.613,-0.168,-9.452,-0.004,0.011,-0.006
22904,-0.622,-0.192,-9.448,-0.005,0.011,-0.006
23007,-0.613,-0.182,-9.455,-0.005,0.012,-0.006
23110,-0.611,-0.17,-9.45,-0.005,0.012,-0.006
23213,-0.613,-0.18,-9.438,-0.004,0.011,-0.006
23316,-0.603,-0.18,-9.431,-0.004,0.011,-0.006
23419,-0.603,-0.177,-9.438,-0.004,0.012,-0.006
23522,-0.606,-0.187,-9.44,-0.004,0.012,-0.006
23625,-0.615,-0.168,-9.452,-0.005,0.011,-0.006
23728,-0.615,-0.175,-9.448,-0.004,0.011,-0.006
23831,-0.601,-0.184,-9.44,-0.004,0.011,-0.006
23934,-0.608,-0.177,-9.428,-0.004,0.011,-0.006
24037,-0.603,-0.182,-9.445,-0.004,0.011,-0.006
24140,-0.608,-0.177,-9.448,-0.005,0.012,-0.006
24243,-0.608,-0.175,-9.445,-0.004,0.012,-0.006
24346,-0.601,-0.177,-9.445,-0.005,0.011,-0.006
24449,-0.608,-0.175,-9.448,-0.004,0.012,-0.006
24552,-0.608,-0.172,-9.443,-0.005,0.012,-0.006
24655,-0.608,-0.184,-9.443,-0.004,0.011,-0.006
24758,-0.608,-0.182,-9.445,-0.004,0.011,-0.006
24861,-0.606,-0.18,-9.436,-0.004,0.012,-0.007
24964,-0.603,-0.182,-9.421,-0.005,0.011,-0.006
25067,-0.603,-0.175,-9.448,-0.004,0.012,-0.006
25170,-0.601,-0.18,-9.455,-0.005,0.011,-0.006
25273,-0.608,-0.172,-9.44,-0.004,0.011,-0.005
25376,-0.611,-0.172,-9.436,-0.004,0.011,-0.006
25479,-0.606,-0.182,-9.452,-0.004,0.012,-0.006
25582,-0.603,-0.18,-9.433,-0.004,0.012,-0.006
25685,-0.603,-0.177,-9.448,-0.004,0.011,-0.006
25788,-0.601,-0.172,-9.45,-0.004,0.011,-0.006
25891,-0.608,-0.184,-9.45,-0.005,0.011,-0.006
25994,-0.596,-0.177,-9.462,-0.004,0.011,-0.006
26097,-0.601,-0.175,-9.445,-0.004,0.011,-0.006
26200,-0.613,-0.17,-9.45,-0.004,0.012,-0.006
26303,-0.603,-0.184,-9.448,-0.004,0.011,-0.006
26406,-0.606,-0.18,-9.445,-0.004,0.012,-0.006
26509,-0.615,-0.172,-9.445,-0.005,0.012,-0.006
26612,-0.606,-0.172,-9.455,-0.004,0.012,-0.006
26715,-0.601,-0.175,-9.443,-0.004,0.011,-0.006
26818,-0.608,-0.18,-9.445,-0.005,0.011,-0.006
26921,-0.599,-0.172,-9.448,-0.004,0.011,-0.006
27024,-0.611,-0.168,-9.433,-0.005,0.012,-0.006
27127,-0.594,-0.182,-9.443,-0.004,0.011,-0.006
27230,-0.613,-0.177,-9.44,-0.004,0.012,-0.006
27333,-0.608,-0.182,-9.452,-0.005,0.012,-0.006
27436,-0.608,-0.184,-9.44,-0.004,0.012,-0.006
27539,-0.606,-0.177,-9.452,-0.004,0.011,-0.006
27642,-0.596,-0.175,-9.436,-0.004,0.011,-0.006
27745,-0.608,-0.189,-9.443,-0.005,0.011,-0.006
27848,-0.611,-0.177,-9.462,-0.004,0.011,-0.006
27951,-0.615,-0.177,-9.443,-0.004,0.012,-0.006
28054,-0.606,-0.184,-9.438,-0.004,0.012,-0.006
28157,-0.611,-0.17,-9.445,-0.004,0.012,-0.006
28260,-0.611,-0.172,-9.45,-0.004,0.011,-0.006
28363,-0.611,-0.177,-9.44,-0.005,0.012,-0.006
28466,-0.613,-0.18,-9.455,-0.004,0.011,-0.006
28569,-0.608,-0.18,-9.445,-0.004,0.012,-0.006
28672,-0.615,-0.175,-9.436,-0.005,0.012,-0.006
28775,-0.594,-0.175,-9.467,-0.004,0.012,-0.006
28878,-0.611,-0.17,-9.438,-0.004,0.011,-0.006
28981,-0.608,-0.175,-9.448,-0.004,0.012,-0.006
29084,-0.606,-0.177,-9.431,-0.005,0.011,-0.006
29187,-0.601,-0.18,-9.452,-0.004,0.012,-0.006
29290,-0.601,-0.18,-9.443,-0.005,0.012,-0.006
29393,-0.608,-0.18,-9.445,-0.004,0.012,-0.006
29496,-0.615,-0.177,-9.44,-0.004,0.011,-0.006
29599,-0.606,-0.18,-9.44,-0.005,0.012,-0.006
29702,-0.601,-0.175,-9.438,-0.004,0.011,-0.006
29805,-0.601,-0.182,-9.445,-0.004,0.012,-0.006
29908,-0.603,-0.184,-9.445,-0.005,0.011,-0.006
30011,-0.608,-0.18,-9.448,-0.004,0.011,-0.006
30114,-0.601,-0.172,-9.438,-0.005,0.012,-0.006
30217,-0.603,-0.18,-9.457,-0.004,0.012,-0.006
30320,-0.613,-0.177,-9.445,-0.005,0.011,-0.006
30423,-0.596,-0.17,-9.438,-0.004,0.011,-0.006
30526,-0.603,-0.175,-9.433,-0.005,0.012,-0.006
30629,-0.611,-0.17,-9.424,-0.005,0.012,-0.006
30732,-0.608,-0.168,-9.443,-0.004,0.012,-0.006
30835,-0.601,-0.172,-9.459,-0.004,0.011,-0.006
30938,-0.601,-0.172,-9.436,-0.005,0.011,-0.006
31041,-0.622,-0.29,-9.419,0.589,-0.025,-0.031
31144,-0.651,-0.883,-9.407,0.113,0.006,-0.01
31247,-0.656,-0.857,-9.402,0.001,0.012,-0.006
31350,-0.646,-0.852,-9.404,-0.004,0.011,-0.006
31453,-0.649,-0.843,-9.414,-0.004,0.012,-0.006
31556,-0.644,-0.84,-9.397,-0.003,0.012,-0.006
31659,-0.646,-0.855,-9.424,-0.004,0.011,-0.006
31762,-0.632,-0.843,-9.412,-0.004,0.011,-0.006
31865,-0.632,-0.855,-9.4,-0.004,0.011,-0.006
31968,-0.639,-0.848,-9.388,-0.004,0.011,-0.006
32071,-0.654,-0.843,-9.4,-0.004,0.012,-0.006
32174,-0.637,-0.864,-9.4,-0.004,0.012,-0.006
32277,-0.634,-0.85,-9.407,-0.004,0.011,-0.006
32380,-0.644,-0.852,-9.397,-0.004,0.011,-0.006
32483,-0.644,-0.862,-9.412,-0.004,0.012,-0.006
32586,-0.649,-0.848,-9.412,-0.004,0.011,-0.006
32689,-0.649,-0.848,-9.409,-0.004,0.012,-0.006
32792,-0.642,-0.86,-9.404,-0.005,0.012,-0.006
32895,-0.637,-0.852,-9.412,-0.004,0.012,-0.006
32998,-0.642,-0.852,-9.416,-0.005,0.011,-0.006
33101,-0.639,-0.848,-9.404,-0.005,0.011,-0.005
33204,-0.651,-0.852,-9.414,-0.005,0.011,-0.006
33307,-0.649,-0.86,-9.414,-0.004,0.011,-0.006
33410,-0.642,-0.848,-9.397,-0.004,0.012,-0.006
33513,-0.639,-0.84,-9.402,-0.004,0.011,-0.006
33616,-0.651,-0.862,-9.412,-0.004,0.011,-0.006
33719,-0.644,-0.85,-9.407,-0.004,0.012,-0.006
33822,-0.649,-0.855,-9.428,-0.005,0.012,-0.006
33925,-0.646,-0.848,-9.412,-0.005,0.012,-0.006
34028,-0.642,-0.855,-9.402,-0.005,0.011,-0.006
34131,-0.639,-0.855,-9.407,-0.005,0.012,-0.006
34234,-0.644,-0.85,-9.409,-0.005,0.011,-0.006
34337,-0.649,-0.852,-9.4,-0.004,0.011,-0.006
34440,-0.649,-0.857,-9.39,-0.004,0.011,-0.006
34543,-0.639,-0.85,-9.409,-0.005,0.011,-0.006
34646,-0.639,-0.845,-9.4,-0.004,0.012,-0.006
34749,-0.63,-0.855,-9.416,-0.004,0.011,-0.006
34852,-0.646,-0.843,-9.4,-0.004,0.011,-0.006
34955,-0.644,-0.857,-9.4,-0.004,0.011,-0.006
35058,-0.651,-0.855,-9.395,-0.004,0.012,-0.006
35161,-0.651,-0.838,-9.397,-0.005,0.011,-0.006
35264,-0.644,-0.862,-9.412,-0.004,0.011,-0.005
35367,-0.642,-0.86,-9.407,-0.004,0.011,-0.006
35470,-0.642,-0.845,-9.395,-0.005,0.011,-0.006
35573,-0.654,-0.85,-9.407,-0.004,0.012,-0.006
35676,-0.656,-0.85,-9.404,-0.005,0.012,-0.006
35779,-0.651,-0.857,-9.407,-0.005,0.012,-0.006
35882,-0.637,-0.855,-9.388,-0.005,0.011,-0.006
35985,-0.642,-0.843,-9.4,-0.004,0.012,-0.006
36088,-0.649,-0.848,-9.407,-0.004,0.012,-0.006
36191,-0.646,-0.848,-9.395,-0.004,0.011,-0.006
36294,-0.642,-0.848,-9.395,-0.004,0.011,-0.006
36397,-0.651,-0.845,-9.392,-0.004,0.011,-0.006
36500,-0.644,-0.85,-9.407,-0.005,0.012,-0.006
36603,-0.649,-0.843,-9.38,-0.005,0.012,-0.007
36706,-0.642,-0.862,-9.407,-0.005,0.012,-0.006
36809,-0.639,-0.843,-9.4,-0.004,0.011,-0.006
36912,-0.651,-0.855,-9.407,-0.005,0.011,-0.006
37015,-0.644,-0.848,-9.397,-0.004,0.012,-0.006
37118,-0.637,-0.838,-9.402,-0.005,0.011,-0.006
37221,-0.644,-0.848,-9.404,-0.004,0.012,-0.006
37324,-0.637,-0.855,-9.407,-0.004,0.012,-0.006
37427,-0.646,-0.852,-9.416,-0.004,0.011,-0.006
37530,-0.656,-0.855,-9.409,-0.004,0.012,-0.006
37633,-0.639,-0.85,-9.404,-0.004,0.012,-0.006
37736,-0.644,-0.852,-9.421,-0.004,0.012,-0.006
37839,-0.644,-0.855,-9.409,-0.005,0.011,-0.006
37942,-0.651,-0.843,-9.395,-0.004,0.012,-0.006
38045,-0.642,-0.855,-9.404,-0.004,0.012,-0.006
38148,-0.639,-0.85,-9.402,-0.004,0.012,-0.006
38251,-0.649,-0.843,-9.402,-0.004,0.012,-0.006
38354,-0.639,-0.845,-9.407,-0.004,0.011,-0.006
38457,-0.646,-0.838,-9.397,-0.005,0.012,-0.006
38560,-0.646,-0.85,-9.4,-0.004,0.012,-0.006
38663,-0.644,-0.85,-9.39,-0.004,0.011,-0.006
38766,-0.646,-0.848,-9.38,-0.004,0.012,-0.006
38869,-0.639,-0.862,-9.416,-0.005,0.011,-0.006
38972,-0.642,-0.845,-9.402,-0.004,0.011,-0.006
39075,-0.642,-0.838,-9.395,-0.005,0.012,-0.006
39178,-0.644,-0.862,-9.409,-0.005,0.011,-0.006
39281,-0.637,-0.852,-9.414,-0.005,0.012,-0.006
39384,-0.644,-0.855,-9.404,-0.005,0.012,-0.006
39487,-0.632,-0.857,-9.402,-0.004,0.011,-0.006
39590,-0.632,-0.852,-9.395,-0.004,0.012,-0.006
39693,-0.646,-0.857,-9.39,-0.004,0.012,-0.006
39796,-0.642,-0.862,-9.412,-0.005,0.012,-0.006
39899,-0.634,-0.855,-9.409,-0.004,0.011,-0.006
40002,-0.644,-0.86,-9.402,-0.004,0.012,-0.006
40105,-0.637,-0.855,-9.39,-0.004,0.012,-0.006
40208,-0.639,-0.852,-9.402,-0.005,0.012,-0.006
40311,-0.639,-0.85,-9.424,-0.005,0.012,-0.006
40414,-0.637,-0.848,-9.385,-0.005,0.012,-0.006
40517,-0.644,-0.855,-9.409,-0.005,0.011,-0.006
40620,-0.637,-0.845,-9.407,-0.004,0.011,-0.006
40723,-0.639,-0.85,-9.392,-0.005,0.011,-0.006
40826,-0.639,-0.845,-9.402,-0.005,0.011,-0.006
40929,-0.637,-0.85,-9.4,-0.005,0.012,-0.005
41032,-0.644,-0.862,-9.39,-0.004,0.011,-0.005
41135,-0.644,-0.852,-9.407,-0.004,0.012,-0.006
41238,-0.63,-0.862,-9.397,-0.004,0.011,-0.006
41341,-0.634,-0.845,-9.404,-0.004,0.012,-0.006
41444,-0.646,-0.855,-9.414,-0.004,0.012,-0.006
41547,-0.649,-0.848,-9.402,-0.004,0.011,-0.006
41650,-0.658,-0.843,-9.4,-0.004,0.012,-0.006
41753,-0.637,-0.855,-9.407,-0.004,0.011,-0.006
41856,-0.642,-0.843,-9.397,-0.004,0.011,-0.006
41959,-0.639,-0.848,-9.424,-0.005,0.011,-0.006
42062,-0.658,-0.855,-9.4,-0.004,0.012,-0.006
42165,-0.644,-0.845,-9.407,-0.004,0.011,-0.006
42268,-0.642,-0.852,-9.402,-0.004,0.012,-0.006
42371,-0.642,-0.852,-9.407,-0.005,0.012,-0.006
42474,-0.646,-0.857,-9.397,-0.005,0.011,-0.006
42577,-0.639,-0.85,-9.395,-0.005,0.011,-0.006
42680,-0.649,-0.855,-9.404,-0.004,0.011,-0.006
42783,-0.639,-0.869,-9.397,-0.005,0.011,-0.006
42886,-0.644,-0.85,-9.39,-0.004,0.011,-0.006
42989,-0.646,-0.857,-9.407,-0.005,0.012,-0.006
43092,-0.639,-0.85,-9.402,-0.005,0.012,-0.006
43195,-0.634,-0.845,-9.4,-0.005,0.012,-0.005
43298,-0.642,-0.848,-9.409,-0.005,0.012,-0.006
43401,-0.642,-0.852,-9.404,-0.004,0.012,-0.006
43504,-0.639,-0.848,-9.409,-0.005,0.011,-0.006
43607,-0.642,-0.855,-9.409,-0.005,0.011,-0.006
43710,-0.639,-0.843,-9.404,-0.005,0.012,-0.006
43813,-0.634,-0.845,-9.397,-0.005,0.011,-0.005
43916,-0.637,-0.855,-9.402,-0.004,0.012,-0.006
44019,-0.646,-0.85,-9.4,-0.004,0.012,-0.006
44122,-0.637,-0.855,-9.404,-0.004,0.011,-0.006
44225,-0.644,-0.855,-9.412,-0.004,0.012,-0.006
44328,-0.646,-0.843,-9.395,-0.004,0.011,-0.006
44431,-0.637,-0.848,-9.402,-0.004,0.012,-0.005
44534,-0.634,-0.86,-9.392,-0.005,0.012,-0.006
44637,-0.646,-0.845,-9.4,-0.005,0.012,-0.006
44740,-0.644,-0.862,-9.4,-0.004,0.012,-0.006
44843,-0.642,-0.85,-9.407,-0.004,0.012,-0.005
44946,-0.644,-0.85,-9.407,-0.005,0.011,-0.006
45049,-0.646,-0.857,-9.414,-0.004,0.011,-0.006
45152,-0.649,-0.845,-9.404,-0.004,0.012,-0.006
45255,-0.639,-0.843,-9.407,-0.005,0.012,-0.006
45358,-0.646,-0.848,-9.409,-0.005,0.012,-0.006
45461,-0.637,-0.84,-9.402,-0.005,0.011,-0.006
45564,-0.654,-0.85,-9.39,-0.005,0.011,-0.006
45667,-0.639,-0.848,-9.4,-0.004,0.011,-0.006
45770,-0.642,-0.85,-9.395,-0.004,0.011,-0.006
45873,-0.639,-0.857,-9.404,-0.004,0.012,-0.006
45976,-0.642,-0.86,-9.395,-0.005,0.011,-0.006
46079,-0.642,-0.855,-9.404,-0.005,0.011,-0.005
46182,-0.644,-0.848,-9.404,-0.004,0.012,-0.006
46285,-0.646,-0.857,-9.416,-0.005,0.012,-0.006
46388,-0.651,-0.855,-9.419,-0.005,0.011,-0.006
46491,-0.642,-0.86,-9.397,-0.005,0.012,-0.006
46594,-0.644,-0.852,-9.407,-0.005,0.011,-0.006
46697,-0.644,-0.852,-9.404,-0.004,0.011,-0.006
46800,-0.639,-0.852,-9.388,-0.004,0.011,-0.006
46903,-0.649,-0.848,-9.402,-0.005,0.011,-0.006
47006,-0.639,-0.843,-9.431,-0.005,0.012,-0.006
47109,-0.644,-0.862,-9.404,-0.005,0.012,-0.006
47212,-0.649,-0.85,-9.4,-0.005,0.012,-0.006
47315,-0.642,-0.864,-9.412,-0.005,0.012,-0.006
47418,-0.634,-0.845,-9.409,-0.005,0.012,-0.006
47521,-0.639,-0.85,-9.397,-0.005,0.011,-0.006
47624,-0.639,-0.85,-9.409,-0.005,0.012,-0.006
47727,-0.642,-0.845,-9.407,-0.005,0.012,-0.006
47830,-0.656,-0.848,-9.402,-0.005,0.011,-0.006
47933,-0.639,-0.86,-9.395,-0.004,0.012,-0.006
48036,-0.639,-0.845,-9.397,-0.005,0.012,-0.006
48139,-0.644,-0.857,-9.409,-0.004,0.012,-0.007
48242,-0.637,-0.857,-9.397,-0.005,0.012,-0.006
48345,-0.646,-0.857,-9.404,-0.004,0.012,-0.006
48448,-0.637,-0.855,-9.412,-0.005,0.012,-0.006
48551,-0.644,-0.855,-9.402,-0.004,0.012,-0.006
48654,-0.639,-0.855,-9.414,-0.004,0.011,-0.006
48757,-0.642,-0.852,-9.409,-0.005,0.012,-0.006
48860,-0.642,-0.855,-9.407,-0.005,0.012,-0.005
48963,-0.644,-0.848,-9.409,-0.005,0.011,-0.006
49066,-0.639,-0.85,-9.392,-0.004,0.011,-0.006
49169,-0.651,-0.85,-9.412,-0.004,0.011,-0.006
49272,-0.632,-0.855,-9.404,-0.004,0.012,-0.006
49375,-0.642,-0.852,-9.4,-0.004,0.011,-0.006
49478,-0.642,-0.857,-9.407,-0.005,0.012,-0.006
49581,-0.649,-0.857,-9.419,-0.004,0.012,-0.006
49684,-0.642,-0.84,-9.407,-0.004,0.012,-0.005
49787,-0.649,-0.852,-9.402,-0.004,0.012,-0.006
49890,-0.639,-0.85,-9.412,-0.005,0.012,-0.006
49993,-0.654,-0.848,-9.4,-0.005,0.012,-0.006
50096,-0.642,-0.848,-9.4,-0.004,0.011,-0.006
50199,-0.649,-0.845,-9.416,-0.005,0.011,-0.006
50302,-0.649,-0.852,-9.39,-0.005,0.012,-0.006
50405,-0.644,-0.852,-9.404,-0.004,0.012,-0.006
50508,-0.642,-0.857,-9.402,-0.004,0.012,-0.005
50611,-0.639,-0.862,-9.407,-0.004,0.012,-0.006
50714,-0.642,-0.864,-9.414,-0.004,0.012,-0.006
50817,-0.644,-0.845,-9.421,-0.004,0.011,-0.005
50920,-0.637,-0.848,-9.395,-0.004,0.011,-0.006
51023,-0.649,-0.852,-9.397,-0.004,0.012,-0.006
51126,-0.639,-0.852,-9.4,-0.005,0.012,-0.006
51229,-0.639,-0.845,-9.397,-0.005,0.012,-0.006
51332,-0.642,-0.852,-9.414,-0.004,0.011,-0.006
51435,-0.642,-0.845,-9.412,-0.004,0.011,-0.006
51538,-0.642,-0.85,-9.407,-0.004,0.011,-0.006
51641,-0.637,-0.85,-9.4,-0.004,0.011,-0.006
51744,-0.651,-0.848,-9.4,-0.005,0.011,-0.006
51847,-0.649,-0.845,-9.402,-0.005,0.012,-0.006
51950,-0.651,-0.843,-9.4,-0.004,0.012,-0.005
52053,-0.634,-0.85,-9.407,-0.004,0.012,-0.006
52156,-0.637,-0.86,-9.397,-0.005,0.012,-0.006
52259,-0.646,-0.857,-9.4,-0.004,0.012,-0.006
52362,-0.642,-0.86,-9.412,-0.005,0.012,-0.006
52465,-0.649,-0.848,-9.407,-0.005,0.011,-0.006
52568,-0.656,-0.857,-9.414,-0.004,0.011,-0.006
52671,-0.642,-0.848,-9.416,-0.004,0.011,-0.006
52774,-0.637,-0.852,-9.407,-0.004,0.011,-0.006
52877,-0.656,-0.843,-9.39,-0.004,0.011,-0.006
52980,-0.642,-0.857,-9.407,-0.004,0.011,-0.006
53083,-0.642,-0.85,-9.404,-0.004,0.012,-0.006
53186,-0.642,-0.855,-9.397,-0.005,0.012,-0.006
53289,-0.642,-0.848,-9.388,-0.005,0.012,-0.006
53392,-0.654,-0.852,-9.407,-0.005,0.011,-0.006
53495,-0.649,-0.852,-9.397,-0.005,0.011,-0.006
53598,-0.644,-0.855,-9.397,-0.005,0.012,-0.005
53701,-0.637,-0.852,-9.409,-0.005,0.011,-0.006
53804,-0.646,-0.857,-9.397,-0.005,0.011,-0.006
53907,-0.637,-0.838,-9.409,-0.005,0.012,-0.006
54010,-0.649,-0.845,-9.404,-0.004,0.012,-0.006
54113,-0.646,-0.852,-9.416,-0.004,0.012,-0.006
54216,-0.644,-0.848,-9.404,-0.005,0.012,-0.006
54319,-0.644,-0.855,-9.383,-0.004,0.012,-0.006
54422,-0.642,-0.864,-9.409,-0.005,0.011,-0.005
54525,-0.637,-0.845,-9.414,-0.005,0.011,-0.006
54628,-0.637,-0.867,-9.402,-0.005,0.011,-0.006
54731,-0.644,-0.845,-9.409,-0.005,0.011,-0.006
54834,-0.646,-0.85,-9.4,-0.004,0.012,-0.006
54937,-0.642,-0.857,-9.392,-0.004,0.012,-0.006
55040,-0.646,-0.857,-9.409,-0.005,0.012,-0.006
55143,-0.639,-0.852,-9.409,-0.004,0.012,-0.006
55246,-0.637,-0.848,-9.402,-0.005,0.011,-0.006
55349,-0.642,-0.843,-9.414,-0.005,0.012,-0.006
55452,-0.644,-0.845,-9.407,-0.004,0.011,-0.006
55555,-0.649,-0.85,-9.397,-0.005,0.011,-0.006
55658,-0.644,-0.855,-9.402,-0.005,0.011,-0.006
55761,-0.642,-0.848,-9.404,-0.005,0.012,-0.006
55864,-0.634,-0.852,-9.402,-0.005,0.011,-0.006
55967,-0.642,-0.857,-9.402,-0.004,0.012,-0.006
56070,-0.637,-0.862,-9.416,-0.004,0.011,-0.006
56173,-0.637,-0.845,-9.402,-0.004,0.011,-0.006
56276,-0.646,-0.855,-9.407,-0.004,0.012,-0.006
56379,-0.634,-0.862,-9.402,-0.005,0.012,-0.006
56482,-0.639,-0.843,-9.404,-0.005,0.011,-0.006
56585,-0.637,-0.86,-9.412,-0.004,0.012,-0.006
56688,-0.646,-0.855,-9.395,-0.004,0.012,-0.006
56791,-0.642,-0.86,-9.388,-0.005,0.012,-0.006
56894,-0.642,-0.862,-9.404,-0.004,0.011,-0.005
56997,-0.639,-0.86,-9.39,-0.005,0.012,-0.005
57100,-0.639,-0.85,-9.414,-0.005,0.011,-0.006
57203,-0.639,-0.845,-9.397,-0.005,0.012,-0.006
57306,-0.642,-0.843,-9.404,-0.004,0.011,-0.006
57409,-0.634,-0.857,-9.412,-0.005,0.012,-0.006
57512,-0.649,-0.845,-9.4,-0.004,0.011,-0.006
57615,-0.642,-0.85,-9.409,-0.005,0.012,-0.006
57718,-0.644,-0.85,-9.412,-0.005,0.011,-0.006
57821,-0.654,-0.845,-9.414,-0.004,0.011,-0.006
57924,-0.646,-0.843,-9.397,-0.005,0.011,-0.006
58027,-0.649,-0.84,-9.397,-0.005,0.011,-0.006
58130,-0.644,-0.843,-9.402,-0.004,0.012,-0.006
58233,-0.642,-0.862,-9.409,-0.004,0.012,-0.006
58336,-0.642,-0.857,-9.409,-0.005,0.011,-0.006
58439,-0.642,-0.852,-9.407,-0.005,0.012,-0.006
58542,-0.632,-0.855,-9.407,-0.004,0.011,-0.006
58645,-0.644,-0.852,-9.407,-0.005,0.011,-0.006
58748,-0.639,-0.845,-9.409,-0.005,0.011,-0.006
58851,-0.646,-0.848,-9.404,-0.004,0.012,-0.006
58954,-0.639,-0.845,-9.404,-0.005,0.011,-0.006
59057,-0.649,-0.85,-9.385,-0.005,0.011,-0.006
59160,-0.642,-0.855,-9.402,-0.005,0.012,-0.006
59263,-0.639,-0.843,-9.402,-0.005,0.011,-0.006
59366,-0.642,-0.85,-9.392,-0.004,0.011,-0.006
59469,-0.644,-0.855,-9.402,-0.005,0.011,-0.006
59572,-0.646,-0.85,-9.404,-0.005,0.011,-0.006
59675,-0.651,-0.852,-9.412,-0.005,0.011,-0.006
59778,-0.63,-0.855,-9.414,-0.004,0.011,-0.006
59881,-0.649,-0.852,-9.409,-0.004,0.011,-0.006
59984,-0.637,-0.852,-9.409,-0.004,0.011,-0.006
60087,-0.646,-0.85,-9.4,-0.004,0.011,-0.006
60190,-0.646,-0.857,-9.4,-0.005,0.011,-0.006
60293,-0.644,-0.857,-9.409,-0.004,0.011,-0.006
60396,-0.642,-0.852,-9.4,-0.004,0.011,-0.006
60499,-0.637,-0.864,-9.414,-0.004,0.012,-0.006
60602,-0.649,-0.857,-9.392,-0.005,0.011,-0.006
60705,-0.644,-0.855,-9.409,-0.005,0.012,-0.006
60808,-0.644,-0.85,-9.4,-0.005,0.011,-0.006
60911,-0.637,-0.845,-9.4,-0.005,0.012,-0.006
61014,-0.644,-0.848,-9.412,-0.004,0.012,-0.006
61117,-0.646,-0.85,-9.404,-0.005,0.012,-0.006
61220,-0.642,-0.855,-9.395,-0.005,0.011,-0.006
61323,-0.642,-0.86,-9.412,-0.005,0.012,-0.006
61426,-0.642,-0.855,-9.4,-0.004,0.011,-0.005
61529,-0.642,-0.857,-9.39,-0.004,0.012,-0.006
61632,-0.642,-0.852,-9.419,-0.005,0.011,-0.006
61735,-0.642,-0.848,-9.404,-0.005,0.012,-0.006
61838,-0.642,-0.855,-9.402,-0.004,0.011,-0.006
61941,-0.646,-0.852,-9.397,-0.005,0.011,-0.006
62044,-0.639,-0.848,-9.404,-0.005,0.011,-0.006
62147,-0.637,-0.852,-9.402,-0.004,0.011,-0.006
62250,-0.637,-0.857,-9.397,-0.005,0.011,-0.006
62353,-0.644,-0.857,-9.412,-0.004,0.011,-0.006
62456,-0.654,-0.867,-9.412,-0.004,0.012,-0.006
62559,-0.63,-0.848,-9.409,-0.005,0.011,-0.006
62662,-0.644,-0.857,-9.407,-0.005,0.011,-0.006
62765,-0.649,-0.85,-9.404,-0.005,0.012,-0.006
62868,-0.654,-0.845,-9.4,-0.004,0.012,-0.006
62971,-0.651,-0.857,-9.388,-0.005,0.012,-0.006
63074,-0.644,-0.86,-9.414,-0.005,0.012,-0.006
63177,-0.639,-0.86,-9.397,-0.005,0.012,-0.006
63280,-0.651,-0.852,-9.407,-0.005,0.011,-0.006
63383,-0.649,-0.855,-9.404,-0.004,0.012,-0.005
63486,-0.656,-0.85,-9.412,-0.004,0.012,-0.006
63589,-0.637,-0.85,-9.414,-0.004,0.012,-0.006
63692,-0.651,-0.848,-9.4,-0.004,0.012,-0.006
63795,-0.644,-0.85,-9.407,-0.005,0.011,-0.006
63898,-0.639,-0.848,-9.392,-0.004,0.012,-0.006
64001,-0.646,-0.857,-9.407,-0.005,0.012,-0.006
64104,-0.639,-0.855,-9.416,-0.005,0.012,-0.006
64207,-0.639,-0.85,-9.404,-0.004,0.011,-0.006
64310,-0.634,-0.845,-9.407,-0.005,0.011,-0.006
64413,-0.649,-0.86,-9.395,-0.005,0.011,-0.006
64516,-0.642,-0.848,-9.407,-0.004,0.011,-0.006
64619,-0.637,-0.85,-9.414,-0.004,0.012,-0.006
64722,-0.644,-0.848,-9.397,-0.005,0.012,-0.006
64825,-0.642,-0.85,-9.402,-0.005,0.011,-0.006
64928,-0.639,-0.85,-9.397,-0.004,0.011,-0.006
65031,-0.642,-0.852,-9.392,-0.004,0.012,-0.006
65134,-0.642,-0.857,-9.407,-0.005,0.011,-0.006
65237,-0.639,-0.852,-9.409,-0.005,0.012,-0.006
65340,-0.654,-0.85,-9.409,-0.004,0.012,-0.006
65443,-0.642,-0.85,-9.395,-0.004,0.012,-0.006
65546,-0.642,-0.852,-9.404,-0.005,0.011,-0.006
65649,-0.642,-0.848,-9.402,-0.004,0.011,-0.006
65752,-0.639,-0.85,-9.404,-0.005,0.011,-0.006
65855,-0.654,-0.848,-9.4,-0.005,0.012,-0.006
65958,-0.639,-0.852,-9.407,-0.005,0.011,-0.006
66061,-0.644,-0.852,-9.4,-0.005,0.012,-0.006
66164,-0.644,-0.86,-9.395,-0.005,0.012,-0.006
66267,-0.644,-0.85,-9.402,-0.004,0.012,-0.006
66370,-0.637,-0.86,-9.407,-0.005,0.012,-0.006
66473,-0.642,-0.85,-9.412,-0.005,0.012,-0.006
66576,-0.651,-0.843,-9.409,-0.005,0.012,-0.006
66679,-0.642,-0.862,-9.426,-0.004,0.012,-0.006
66782,-0.639,-0.843,-9.402,-0.004,0.012,-0.006
66885,-0.642,-0.848,-9.424,-0.005,0.012,-0.006
66988,-0.644,-0.862,-9.407,-0.005,0.012,-0.006
67091,-0.644,-0.852,-9.414,-0.004,0.011,-0.006
67194,-0.634,-0.852,-9.404,-0.004,0.011,-0.006
67297,-0.651,-0.86,-9.414,-0.005,0.011,-0.006
67400,-0.639,-0.852,-9.4,-0.005,0.012,-0.006
67503,-0.644,-0.85,-9.421,-0.004,0.012,-0.006
67606,-0.632,-0.85,-9.4,-0.004,0.012,-0.006
67709,-0.637,-0.838,-9.395,-0.005,0.012,-0.006
67812,-0.634,-0.85,-9.407,-0.005,0.012,-0.006
67915,-0.642,-0.848,-9.407,-0.005,0.012,-0.006
68018,-0.644,-0.855,-9.4,-0.004,0.012,-0.006
68121,-0.642,-0.852,-9.407,-0.004,0.012,-0.006
68224,-0.642,-0.85,-9.402,-0.004,0.012,-0.005
68327,-0.639,-0.852,-9.412,-0.005,0.011,-0.006
68430,-0.646,-0.86,-9.421,-0.005,0.012,-0.006
68533,-0.642,-0.848,-9.416,-0.005,0.012,-0.006
68636,-0.651,-0.848,-9.409,-0.005,0.012,-0.006
68739,-0.642,-0.857,-9.402,-0.005,0.012,-0.006
68842,-0.632,-0.852,-9.409,-0.005,0.012,-0.006
68945,-0.637,-0.857,-9.419,-0.005,0.012,-0.006
69048,-0.637,-0.843,-9.409,-0.004,0.012,-0.006
69151,-0.644,-0.86,-9.402,-0.005,0.012,-0.006
69254,-0.642,-0.852,-9.412,-0.004,0.012,-0.006
69357,-0.644,-0.84,-9.412,-0.005,0.012,-0.006
69460,-0.644,-0.86,-9.414,-0.005,0.012,-0.006
69563,-0.654,-0.857,-9.402,-0.005,0.011,-0.006
69666,-0.651,-0.848,-9.419,-0.004,0.012,-0.006
69769,-0.661,-0.85,-9.402,-0.004,0.011,-0.006
69872,-0.658,-0.852,-9.409,-0.005,0.011,-0.006
69975,-0.639,-0.845,-9.412,-0.004,0.011,-0.006
70078,-0.634,-0.855,-9.416,-0.004,0.012,-0.006
70181,-0.654,-0.845,-9.4,-0.005,0.012,-0.006
70284,-0.649,-0.848,-9.407,-0.004,0.012,-0.006
70387,-0.642,-0.85,-9.397,-0.005,0.012,-0.006
70490,-0.642,-0.85,-9.4,-0.005,0.012,-0.006
70593,-0.644,-0.85,-9.4,-0.004,0.011,-0.006
70696,-0.644,-0.855,-9.404,-0.005,0.011,-0.005
70799,-0.651,-0.845,-9.414,-0.005,0.011,-0.006
70902,-0.651,-0.855,-9.412,-0.004,0.011,-0.006
71005,-0.651,-0.848,-9.407,-0.004,0.011,-0.006
71108,-0.639,-0.852,-9.414,-0.005,0.012,-0.006
71211,-0.646,-0.862,-9.416,-0.005,0.011,-0.006
71314,-0.644,-0.85,-9.404,-0.005,0.011,-0.006
71417,-0.644,-0.852,-9.407,-0.004,0.011,-0.006
71520,-0.637,-0.852,-9.404,-0.004,0.012,-0.006
71623,-0.642,-0.845,-9.397,-0.004,0.011,-0.006
71726,-0.639,-0.86,-9.407,-0.004,0.011,-0.006
71829,-0.644,-0.845,-9.407,-0.005,0.011,-0.006
71932,-0.644,-0.855,-9.416,-0.005,0.012,-0.006
72035,-0.649,-0.843,-9.412,-0.005,0.012,-0.006
72138,-0.644,-0.85,-9.407,-0.005,0.012,-0.006
72241,-0.651,-0.86,-9.407,-0.005,0.012,-0.006
72344,-0.646,-0.852,-9.4,-0.005,0.012,-0.006
72447,-0.646,-0.855,-9.388,-0.004,0.012,-0.006
72550,-0.642,-0.855,-9.407,-0.005,0.011,-0.006
72653,-0.642,-0.85,-9.404,-0.005,0.012,-0.006
72756,-0.644,-0.86,-9.397,-0.004,0.012,-0.006
72859,-0.646,-0.86,-9.414,-0.005,0.012,-0.006
72962,-0.642,-0.85,-9.414,-0.005,0.012,-0.006
73065,-0.646,-0.862,-9.402,-0.004,0.012,-0.006
73168,-0.642,-0.86,-9.419,-0.005,0.012,-0.006
73271,-0.637,-0.843,-9.397,-0.004,0.012,-0.006
73374,-0.639,-0.852,-9.4,-0.004,0.011,-0.006
73477,-0.642,-0.855,-9.404,-0.004,0.011,-0.006
73580,-0.646,-0.85,-9.402,-0.004,0.011,-0.006
73683,-0.646,-0.855,-9.397,-0.005,0.012,-0.006
73786,-0.642,-0.855,-9.402,-0.005,0.011,-0.006
73889,-0.649,-0.855,-9.4,-0.004,0.011,-0.006
73992,-0.644,-0.848,-9.409,-0.004,0.012,-0.006
74095,-0.644,-0.852,-9.395,-0.004,0.011,-0.006
74198,-0.639,-0.84,-9.407,-0.005,0.012,-0.006
74301,-0.637,-0.852,-9.402,-0.005,0.011,-0.006
74404,-0.644,-0.855,-9.407,-0.005,0.012,-0.006
74507,-0.644,-0.857,-9.402,-0.005,0.011,-0.006
74610,-0.639,-0.852,-9.397,-0.005,0.011,-0.006
74713,-0.637,-0.857,-9.392,-0.005,0.012,-0.006
74816,-0.649,-0.852,-9.409,-0.005,0.011,-0.006
74919,-0.642,-0.848,-9.395,-0.004,0.012,-0.006
75022,-0.639,-0.85,-9.404,-0.005,0.012,-0.006
75125,-0.651,-0.86,-9.4,-0.005,0.012,-0.006
75228,-0.642,-0.845,-9.39,-0.005,0.012,-0.005
75331,-0.649,-0.857,-9.4,-0.005,0.011,-0.006
75434,-0.649,-0.857,-9.392,-0.005,0.011,-0.006
75537,-0.642,-0.85,-9.409,-0.004,0.011,-0.006
75640,-0.651,-0.862,-9.412,-0.005,0.012,-0.005
75743,-0.634,-0.85,-9.395,-0.005,0.011,-0.006
75846,-0.642,-0.85,-9.4,-0.005,0.011,-0.006
75949,-0.634,-0.855,-9.419,-0.004,0.011,-0.006
76052,-0.646,-0.852,-9.402,-0.004,0.012,-0.006
76155,-0.642,-0.845,-9.412,-0.005,0.011,-0.006
76258,-0.646,-0.855,-9.419,-0.005,0.012,-0.005
76361,-0.651,-0.857,-9.404,-0.004,0.011,-0.006
76464,-0.637,-0.862,-9.409,-0.005,0.012,-0.006
76567,-0.644,-0.845,-9.385,-0.004,0.011,-0.006
76670,-0.644,-0.845,-9.407,-0.005,0.012,-0.006
76773,-0.651,-0.84,-9.4,-0.005,0.012,-0.006
76876,-0.637,-0.85,-9.404,-0.005,0.011,-0.006
76979,-0.642,-0.86,-9.395,-0.004,0.011,-0.006
77082,-0.649,-0.852,-9.419,-0.004,0.011,-0.006
77185,-0.642,-0.848,-9.402,-0.005,0.011,-0.006
77288,-0.639,-0.855,-9.402,-0.004,0.011,-0.006
77391,-0.642,-0.848,-9.4,-0.004,0.011,-0.006
77494,-0.646,-0.852,-9.407,-0.004,0.012,-0.006
77597,-0.642,-0.855,-9.392,-0.005,0.012,-0.006
77700,-0.634,-0.848,-9.388,-0.004,0.012,-0.006
77803,-0.649,-0.848,-9.407,-0.005,0.011,-0.006
77906,-0.639,-0.852,-9.397,-0.004,0.011,-0.006
78009,-0.644,-0.848,-9.402,-0.004,0.012,-0.006
78112,-0.639,-0.848,-9.392,-0.005,0.011,-0.006
78215,-0.637,-0.869,-9.404,-0.004,0.011,-0.006
78318,-0.649,-0.848,-9.397,-0.005,0.012,-0.006
78421,-0.639,-0.85,-9.402,-0.004,0.011,-0.006
78524,-0.646,-0.852,-9.402,-0.004,0.012,-0.006
78627,-0.649,-0.848,-9.412,-0.005,0.011,-0.006
78730,-0.642,-0.855,-9.404,-0.005,0.011,-0.006
78833,-0.639,-0.848,-9.416,-0.005,0.011,-0.006
78936,-0.642,-0.857,-9.426,-0.005,0.011,-0.006
79039,-0.646,-0.855,-9.409,-0.005,0.012,-0.006
79142,-0.637,-0.85,-9.402,-0.005,0.011,-0.006
79245,-0.634,-0.848,-9.402,-0.004,0.011,-0.006
79348,-0.646,-0.862,-9.409,-0.005,0.012,-0.005
79451,-0.644,-0.852,-9.39,-0.005,0.011,-0.006
79554,-0.656,-0.857,-9.421,-0.005,0.012,-0.006
79657,-0.644,-0.845,-9.416,-0.004,0.011,-0.006
79760,-0.644,-0.845,-9.419,-0.004,0.011,-0.006
79863,-0.644,-0.85,-9.4,-0.004,0.012,-0.006
79966,-0.637,-0.857,-9.402,-0.004,0.012,-0.006
80069,-0.642,-0.857,-9.402,-0.005,0.011,-0.006
80172,-0.642,-0.86,-9.402,-0.004,0.012,-0.006
80275,-0.642,-0.848,-9.416,-0.005,0.012,-0.006
80378,-0.651,-0.845,-9.404,-0.004,0.012,-0.006
80481,-0.639,-0.852,-9.404,-0.004,0.011,-0.006
80584,-0.642,-0.848,-9.404,-0.004,0.011,-0.006
80687,-0.644,-0.86,-9.416,-0.004,0.011,-0.006
80790,-0.644,-0.85,-9.404,-0.004,0.011,-0.006
80893,-0.651,-0.85,-9.409,-0.005,0.011,-0.006
80996,-0.644,-0.855,-9.4,-0.005,0.012,-0.006
81099,-0.639,-0.855,-9.392,-0.004,0.012,-0.006
81202,-0.642,-0.85,-9.419,-0.004,0.011,-0.006
81305,-0.651,-0.85,-9.395,-0.005,0.011,-0.006
81408,-0.649,-0.84,-9.395,-0.005,0.012,-0.006
81511,-0.649,-0.864,-9.392,-0.004,0.011,-0.006
81614,-0.646,-0.857,-9.397,-0.005,0.012,-0.006
81717,-0.639,-0.845,-9.421,-0.004,0.011,-0.006
81820,-0.646,-0.85,-9.402,-0.004,0.011,-0.006
81923,-0.642,-0.85,-9.409,-0.005,0.012,-0.005
82026,-0.639,-0.855,-9.407,-0.005,0.012,-0.006
82129,-0.656,-0.848,-9.414,-0.005,0.011,-0.006
82232,-0.649,-0.855,-9.39,-0.004,0.012,-0.005
82335,-0.651,-0.855,-9.402,-0.004,0.012,-0.006
82438,-0.642,-0.857,-9.414,-0.004,0.011,-0.006
82541,-0.651,-0.84,-9.402,-0.005,0.012,-0.006
82644,-0.637,-0.85,-9.395,-0.005,0.012,-0.005
82747,-0.644,-0.845,-9.414,-0.004,0.011,-0.006
82850,-0.646,-0.845,-9.397,-0.005,0.011,-0.006
82953,-0.654,-0.852,-9.397,-0.004,0.012,-0.006
83056,-0.644,-0.845,-9.404,-0.005,0.012,-0.006
83159,-0.646,-0.843,-9.407,-0.004,0.012,-0.006
83262,-0.644,-0.855,-9.402,-0.004,0.011,-0.006
83365,-0.644,-0.836,-9.407,-0.005,0.012,-0.006
83468,-0.642,-0.862,-9.407,-0.005,0.011,-0.006
83571,-0.642,-0.845,-9.4,-0.005,0.012,-0.006
83674,-0.642,-0.845,-9.412,-0.005,0.012,-0.006
83777,-0.639,-0.85,-9.414,-0.005,0.012,-0.006
83880,-0.654,-0.855,-9.4,-0.005,0.012,-0.006
83983,-0.642,-0.855,-9.409,-0.005,0.011,-0.006
84086,-0.637,-0.855,-9.409,-0.004,0.011,-0.006
84189,-0.642,-0.843,-9.402,-0.004,0.011,-0.006
84292,-0.646,-0.85,-9.407,-0.004,0.011,-0.006
84395,-0.642,-0.85,-9.4,-0.005,0.012,-0.006
84498,-0.642,-0.862,-9.412,-0.005,0.012,-0.006
84601,-0.644,-0.857,-9.404,-0.004,0.011,-0.006
84704,-0.642,-0.85,-9.407,-0.005,0.011,-0.006
84807,-0.649,-0.852,-9.404,-0.004,0.012,-0.006
84910,-0.654,-0.85,-9.392,-0.004,0.011,-0.006
85013,-0.646,-0.843,-9.4,-0.004,0.012,-0.006
85116,-0.651,-0.857,-9.392,-0.004,0.011,-0.006
85219,-0.639,-0.855,-9.412,-0.004,0.011,-0.006
85322,-0.642,-0.843,-9.409,-0.004,0.012,-0.006
85425,-0.644,-0.857,-9.414,-0.005,0.011,-0.006
85528,-0.637,-0.86,-9.404,-0.004,0.011,-0.006
85631,-0.634,-0.85,-9.409,-0.005,0.012,-0.006
85734,-0.642,-0.855,-9.407,-0.005,0.011,-0.006
85837,-0.649,-0.852,-9.414,-0.005,0.012,-0.005
85940,-0.649,-0.84,-9.409,-0.004,0.012,-0.006
86043,-0.651,-0.843,-9.414,-0.005,0.012,-0.006
86146,-0.651,-0.852,-9.407,-0.005,0.011,-0.006
86249,-0.646,-0.864,-9.414,-0.004,0.011,-0.006
86352,-0.639,-0.843,-9.412,-0.005,0.011,-0.006
86455,-0.63,-0.85,-9.424,-0.004,0.011,-0.006
86558,-0.651,-0.845,-9.416,-0.005,0.011,-0.006
86661,-0.639,-0.85,-9.409,-0.005,0.011,-0.006
86764,-0.656,-0.848,-9.407,-0.005,0.011,-0.006
86867,-0.642,-0.85,-9.409,-0.004,0.011,-0.006
86970,-0.644,-0.852,-9.404,-0.005,0.012,-0.006
87073,-0.646,-0.862,-9.402,-0.005,0.011,-0.006
87176,-0.644,-0.855,-9.39,-0.004,0.011,-0.006
87279,-0.644,-0.85,-9.404,-0.005,0.011,-0.006
87382,-0.639,-0.857,-9.412,-0.005,0.011,-0.007
87485,-0.649,-0.85,-9.416,-0.004,0.011,-0.005
87588,-0.637,-0.848,-9.404,-0.005,0.012,-0.006
87691,-0.642,-0.855,-9.409,-0.004,0.011,-0.006
87794,-0.644,-0.86,-9.407,-0.005,0.011,-0.006
87897,-0.637,-0.85,-9.407,-0.004,0.012,-0.006
88000,-0.646,-0.852,-9.397,-0.004,0.011,-0.006
88103,-0.642,-0.857,-9.414,-0.004,0.011,-0.006
88206,-0.654,-0.855,-9.412,-0.004,0.011,-0.006
88309,-0.644,-0.862,-9.412,-0.004,0.012,-0.006
88412,-0.644,-0.85,-9.4,-0.004,0.011,-0.006
88515,-0.639,-0.852,-9.407,-0.005,0.011,-0.005
88618,-0.642,-0.848,-9.407,-0.005,0.011,-0.006
88721,-0.644,-0.857,-9.407,-0.004,0.011,-0.006
88824,-0.646,-0.852,-9.412,-0.004,0.011,-0.006
88927,-0.649,-0.843,-9.407,-0.005,0.011,-0.005
89030,-0.637,-0.857,-9.404,-0.005,0.012,-0.006
89133,-0.644,-0.852,-9.414,-0.005,0.011,-0.005
89236,-0.644,-0.848,-9.412,-0.004,0.011,-0.006
89339,-0.651,-0.85,-9.404,-0.005,0.011,-0.006
89442,-0.646,-0.855,-9.397,-0.005,0.012,-0.006
89545,-0.649,-0.845,-9.414,-0.005,0.011,-0.006
89648,-0.637,-0.852,-9.407,-0.004,0.012,-0.006
89751,-0.661,-0.848,-9.412,-0.004,0.012,-0.006
89854,-0.637,-0.852,-9.409,-0.005,0.011,-0.006
89957,-0.656,-0.852,-9.4,-0.005,0.012,-0.006
90060,-0.642,-0.852,-9.397,-0.005,0.011,-0.006
90163,-0.642,-0.857,-9.409,-0.004,0.011,-0.006
90266,-0.634,-0.86,-9.407,-0.005,0.011,-0.006
90369,-0.644,-0.85,-9.412,-0.005,0.011,-0.006
90472,-0.639,-0.85,-9.407,-0.005,0.012,-0.006
90575,-0.649,-0.855,-9.409,-0.005,0.011,-0.006
90678,-0.642,-0.85,-9.404,-0.005,0.011,-0.006
90781,-0.651,-0.852,-9.412,-0.004,0.012,-0.006
90884,-0.646,-0.85,-9.407,-0.004,0.011,-0.006
90987,-0.649,-0.807,-9.395,0.028,0.01,-0.008
91090,-0.654,-1.188,-9.366,0.112,0.005,-0.009
91193,-0.656,-1.132,-9.366,-0.0,0.011,-0.006
91296,-0.656,-1.137,-9.383,-0.004,0.011,-0.006
91399,-0.666,-1.137,-9.39,-0.005,0.011,-0.006
91502,-0.663,-1.132,-9.388,-0.004,0.012,-0.006
91605,-0.663,-1.142,-9.369,-0.004,0.011,-0.006
91708,-0.654,-1.137,-9.38,-0.005,0.012,-0.006
91811,-0.654,-1.142,-9.383,-0.004,0.012,-0.006
91914,-0.654,-1.137,-9.364,-0.004,0.012,-0.006
92017,-0.663,-1.132,-9.369,-0.004,0.011,-0.006
92120,-0.651,-1.14,-9.373,-0.005,0.012,-0.006
92223,-0.649,-1.13,-9.385,-0.005,0.011,-0.006
92326,-0.658,-1.132,-9.385,-0.005,0.012,-0.006
92429,-0.651,-1.135,-9.388,-0.004,0.012,-0.005
92532,-0.663,-1.147,-9.371,-0.005,0.011,-0.006
92635,-0.661,-1.135,-9.378,-0.004,0.011,-0.006
92738,-0.663,-1.14,-9.371,-0.005,0.011,-0.006
92841,-0.661,-1.142,-9.383,-0.005,0.011,-0.006
92944,-0.663,-1.13,-9.383,-0.005,0.012,-0.006
93047,-0.663,-1.132,-9.383,-0.005,0.011,-0.006
93150,-0.654,-1.123,-9.369,-0.005,0.011,-0.006
93253,-0.661,-1.132,-9.395,-0.005,0.011,-0.006
93356,-0.651,-1.144,-9.378,-0.005,0.012,-0.006
93459,-0.654,-1.13,-9.385,-0.004,0.012,-0.006
93562,-0.649,-1.142,-9.378,-0.004,0.011,-0.006
93665,-0.654,-1.132,-9.373,-0.005,0.011,-0.006
93768,-0.661,-1.132,-9.378,-0.004,0.011,-0.006
93871,-0.646,-1.14,-9.366,-0.005,0.012,-0.005
93974,-0.668,-1.128,-9.39,-0.005,0.011,-0.005
94077,-0.654,-1.135,-9.371,-0.004,0.012,-0.006
94180,-0.651,-1.142,-9.383,-0.004,0.012,-0.006
94283,-0.649,-1.135,-9.376,-0.005,0.011,-0.006
94386,-0.656,-1.132,-9.383,-0.005,0.012,-0.006
94489,-0.661,-1.128,-9.385,-0.004,0.011,-0.006
94592,-0.656,-1.132,-9.376,-0.004,0.012,-0.005
94695,-0.654,-1.142,-9.383,-0.005,0.012,-0.006
94798,-0.668,-1.132,-9.38,-0.004,0.012,-0.006
94901,-0.661,-1.13,-9.373,-0.004,0.011,-0.006
95004,-0.661,-1.13,-9.383,-0.005,0.012,-0.006
95107,-0.663,-1.13,-9.371,-0.005,0.012,-0.006
95210,-0.656,-1.137,-9.376,-0.005,0.012,-0.006
95313,-0.663,-1.135,-9.371,-0.005,0.011,-0.006
95416,-0.668,-1.14,-9.38,-0.005,0.011,-0.005
95519,-0.656,-1.137,-9.369,-0.005,0.012,-0.006
95622,-0.651,-1.13,-9.371,-0.005,0.011,-0.005
95725,-0.651,-1.137,-9.38,-0.005,0.012,-0.006
95828,-0.649,-1.137,-9.371,-0.005,0.011,-0.005
95931,-0.651,-1.13,-9.359,-0.005,0.011,-0.006
96034,-0.658,-1.13,-9.373,-0.004,0.011,-0.006
96137,-0.661,-1.135,-9.369,-0.004,0.011,-0.006
96240,-0.656,-1.137,-9.383,-0.005,0.011,-0.005
96343,-0.656,-1.135,-9.378,-0.005,0.011,-0.006
96446,-0.663,-1.14,-9.385,-0.004,0.011,-0.006
96549,-0.649,-1.128,-9.373,-0.004,0.012,-0.005
96652,-0.656,-1.135,-9.383,-0.004,0.012,-0.006
96755,-0.656,-1.142,-9.373,-0.005,0.012,-0.006
96858,-0.658,-1.137,-9.402,-0.005,0.012,-0.006
96961,-0.663,-1.14,-9.383,-0.005,0.012,-0.006
97064,-0.661,-1.13,-9.38,-0.004,0.012,-0.006
97167,-0.656,-1.123,-9.38,-0.005,0.011,-0.006
97270,-0.654,-1.137,-9.388,-0.005,0.011,-0.006
97373,-0.654,-1.137,-9.38,-0.005,0.011,-0.006
97476,-0.656,-1.13,-9.376,-0.005,0.011,-0.006
97579,-0.663,-1.135,-9.383,-0.005,0.011,-0.006
97682,-0.663,-1.137,-9.366,-0.004,0.012,-0.006
97785,-0.666,-1.132,-9.378,-0.004,0.011,-0.006
97888,-0.661,-1.14,-9.378,-0.005,0.011,-0.005
97991,-0.661,-1.13,-9.38,-0.004,0.012,-0.006
98094,-0.642,-1.142,-9.369,-0.005,0.011,-0.006
98197,-0.654,-1.14,-9.373,-0.005,0.012,-0.005
98300,-0.663,-1.135,-9.388,-0.005,0.012,-0.006
98403,-0.656,-1.14,-9.376,-0.004,0.011,-0.006
98506,-0.663,-1.125,-9.373,-0.005,0.011,-0.006
98609,-0.658,-1.142,-9.376,-0.005,0.011,-0.006
98712,-0.658,-1.142,-9.378,-0.005,0.011,-0.006
98815,-0.661,-1.128,-9.383,-0.005,0.011,-0.006
98918,-0.651,-1.135,-9.369,-0.004,0.012,-0.006
99021,-0.651,-1.132,-9.364,-0.005,0.011,-0.006
99124,-0.661,-1.132,-9.383,-0.004,0.011,-0.006
99227,-0.668,-1.142,-9.369,-0.005,0.012,-0.006
99330,-0.663,-1.14,-9.371,-0.005,0.012,-0.006
99433,-0.654,-1.142,-9.373,-0.005,0.012,-0.006
99536,-0.651,-1.137,-9.383,-0.005,0.011,-0.006
99639,-0.661,-1.137,-9.383,-0.005,0.011,-0.006
99742,-0.67,-1.137,-9.378,-0.004,0.011,-0.006
99845,-0.666,-1.135,-9.39,-0.005,0.011,-0.006
99948,-0.661,-1.135,-9.378,-0.005,0.011,-0.006
100051,-0.663,-1.144,-9.38,-0.004,0.012,-0.006
100154,-0.651,-1.135,-9.359,-0.005,0.011,-0.006
100257,-0.658,-1.128,-9.378,-0.005,0.011,-0.006
100360,-0.644,-1.132,-9.369,-0.005,0.011,-0.006
100463,-0.649,-1.128,-9.371,-0.004,0.011,-0.006
100566,-0.666,-1.13,-9.373,-0.005,0.011,-0.006
100669,-0.666,-1.128,-9.361,-0.004,0.012,-0.006
100772,-0.661,-1.135,-9.38,-0.005,0.012,-0.006
100875,-0.658,-1.137,-9.369,-0.004,0.012,-0.006
100978,-0.654,-1.125,-9.364,-0.005,0.011,-0.005
101081,-0.651,-1.12,-9.388,-0.005,0.011,-0.006
101184,-0.654,-1.137,-9.376,-0.004,0.011,-0.006
101287,-0.663,-1.128,-9.371,-0.005,0.012,-0.006
101390,-0.651,-1.135,-9.385,-0.004,0.011,-0.006
101493,-0.654,-1.137,-9.378,-0.005,0.012,-0.006
101596,-0.661,-1.118,-9.397,-0.004,0.012,-0.006
101699,-0.658,-1.135,-9.38,-0.005,0.011,-0.006
101802,-0.658,-1.13,-9.383,-0.005,0.011,-0.006
101905,-0.661,-1.13,-9.395,-0.005,0.012,-0.006
102008,-0.663,-1.152,-9.373,-0.004,0.011,-0.006
102111,-0.661,-1.135,-9.371,-0.004,0.011,-0.006
102214,-0.651,-1.128,-9.369,-0.005,0.012,-0.006
102317,-0.661,-1.135,-9.361,-0.005,0.012,-0.006
102420,-0.651,-1.132,-9.385,-0.005,0.012,-0.006
102523,-0.666,-1.144,-9.364,-0.005,0.012,-0.006
102626,-0.649,-1.132,-9.385,-0.005,0.011,-0.006
102729,-0.661,-1.137,-9.376,-0.004,0.011,-0.006
102832,-0.656,-1.13,-9.383,-0.004,0.011,-0.006
102935,-0.651,-1.13,-9.38,-0.005,0.011,-0.006
103038,-0.654,-1.13,-9.385,-0.004,0.011,-0.006
103141,-0.666,-1.135,-9.373,-0.004,0.011,-0.006
103244,-0.656,-1.13,-9.39,-0.004,0.011,-0.006
103347,-0.651,-1.142,-9.373,-0.005,0.012,-0.006
103450,-0.661,-1.14,-9.378,-0.004,0.012,-0.006
103553,-0.651,-1.128,-9.383,-0.005,0.012,-0.006
103656,-0.661,-1.135,-9.383,-0.005,0.012,-0.006
103759,-0.661,-1.132,-9.383,-0.005,0.011,-0.006
103862,-0.651,-1.132,-9.383,-0.004,0.012,-0.005
103965,-0.656,-1.142,-9.38,-0.005,0.012,-0.006
104068,-0.656,-1.132,-9.378,-0.005,0.011,-0.006
104171,-0.654,-1.14,-9.395,-0.005,0.011,-0.006
104274,-0.661,-1.14,-9.385,-0.005,0.012,-0.006
104377,-0.661,-1.13,-9.383,-0.004,0.012,-0.006
104480,-0.646,-1.132,-9.369,-0.004,0.012,-0.006
104583,-0.651,-1.142,-9.373,-0.005,0.011,-0.006
104686,-0.654,-1.128,-9.38,-0.005,0.012,-0.006
104789,-0.654,-1.13,-9.369,-0.005,0.012,-0.006
104892,-0.661,-1.13,-9.376,-0.005,0.011,-0.006
104995,-0.646,-1.132,-9.361,-0.004,0.012,-0.006
105098,-0.661,-1.132,-9.366,-0.004,0.011,-0.005
105201,-0.661,-1.123,-9.383,-0.004,0.011,-0.006
105304,-0.651,-1.137,-9.385,-0.005,0.012,-0.006
105407,-0.658,-1.14,-9.371,-0.005,0.012,-0.006
105510,-0.656,-1.137,-9.371,-0.005,0.012,-0.006
105613,-0.649,-1.144,-9.373,-0.005,0.011,-0.006
105716,-0.658,-1.135,-9.378,-0.005,0.011,-0.006
105819,-0.654,-1.128,-9.361,-0.004,0.011,-0.006
105922,-0.661,-1.142,-9.364,-0.004,0.012,-0.006
106025,-0.658,-1.128,-9.373,-0.005,0.012,-0.006
106128,-0.658,-1.13,-9.376,-0.005,0.012,-0.006
106231,-0.656,-1.137,-9.373,-0.005,0.011,-0.006
106334,-0.668,-1.123,-9.388,-0.004,0.012,-0.006
106437,-0.656,-1.132,-9.378,-0.005,0.012,-0.006
106540,-0.651,-1.13,-9.371,-0.004,0.012,-0.006
106643,-0.658,-1.135,-9.354,-0.004,0.011,-0.006
106746,-0.656,-1.144,-9.373,-0.004,0.011,-0.006
106849,-0.663,-1.132,-9.385,-0.004,0.012,-0.006
106952,-0.661,-1.135,-9.378,-0.004,0.011,-0.005
107055,-0.661,-1.13,-9.383,-0.005,0.011,-0.006
107158,-0.663,-1.128,-9.378,-0.005,0.012,-0.006
107261,-0.656,-1.142,-9.371,-0.005,0.012,-0.006
107364,-0.658,-1.14,-9.385,-0.004,0.011,-0.006
107467,-0.651,-1.125,-9.38,-0.005,0.011,-0.006
107570,-0.656,-1.135,-9.385,-0.005,0.011,-0.006
107673,-0.661,-1.135,-9.39,-0.005,0.011,-0.006
107776,-0.663,-1.13,-9.369,-0.005,0.011,-0.006
107879,-0.661,-1.14,-9.369,-0.005,0.012,-0.006
107982,-0.649,-1.137,-9.376,-0.004,0.012,-0.006
108085,-0.661,-1.135,-9.371,-0.004,0.012,-0.006
108188,-0.656,-1.128,-9.38,-0.004,0.012,-0.006
108291,-0.656,-1.13,-9.383,-0.005,0.012,-0.006
108394,-0.656,-1.135,-9.378,-0.004,0.011,-0.006
108497,-0.666,-1.144,-9.385,-0.005,0.011,-0.006
108600,-0.663,-1.123,-9.373,-0.005,0.012,-0.006
108703,-0.656,-1.14,-9.383,-0.005,0.011,-0.006
108806,-0.651,-1.125,-9.376,-0.005,0.012,-0.006
108909,-0.654,-1.142,-9.366,-0.005,0.011,-0.006
109012,-0.661,-1.135,-9.383,-0.004,0.011,-0.006
109115,-0.658,-1.142,-9.38,-0.005,0.011,-0.006
109218,-0.658,-1.128,-9.371,-0.005,0.011,-0.006
109321,-0.654,-1.132,-9.378,-0.005,0.011,-0.006
109424,-0.666,-1.128,-9.383,-0.005,0.011,-0.006
109527,-0.661,-1.137,-9.378,-0.005,0.011,-0.005
109630,-0.656,-1.132,-9.371,-0.004,0.012,-0.006
109733,-0.649,-1.123,-9.38,-0.005,0.012,-0.006
109836,-0.661,-1.142,-9.376,-0.004,0.012,-0.006
109939,-0.646,-1.128,-9.373,-0.005,0.011,-0.006
110042,-0.654,-1.137,-9.376,-0.005,0.012,-0.006
110145,-0.649,-1.128,-9.38,-0.005,0.012,-0.006
110248,-0.661,-1.132,-9.361,-0.005,0.011,-0.006
110351,-0.658,-1.142,-9.371,-0.005,0.011,-0.006
110454,-0.661,-1.14,-9.383,-0.004,0.011,-0.006
110557,-0.661,-1.135,-9.383,-0.005,0.012,-0.006
110660,-0.661,-1.135,-9.38,-0.004,0.012,-0.006
110763,-0.663,-1.142,-9.373,-0.005,0.011,-0.006
110866,-0.661,-1.13,-9.366,-0.005,0.011,-0.006
110969,-0.656,-1.137,-9.38,-0.005,0.012,-0.006
111072,-0.654,-1.144,-9.354,-0.005,0.011,-0.006
111175,-0.654,-1.132,-9.366,-0.005,0.012,-0.006
111278,-0.663,-1.135,-9.373,-0.005,0.012,-0.006
111381,-0.666,-1.125,-9.366,-0.004,0.012,-0.006
111484,-0.651,-1.135,-9.383,-0.004,0.011,-0.006
111587,-0.661,-1.137,-9.371,-0.005,0.012,-0.006
111690,-0.663,-1.132,-9.39,-0.004,0.011,-0.006
111793,-0.661,-1.14,-9.376,-0.004,0.012,-0.006
111896,-0.666,-1.135,-9.369,-0.004,0.012,-0.006
111999,-0.658,-1.132,-9.369,-0.005,0.011,-0.006
112102,-0.651,-1.142,-9.38,-0.005,0.011,-0.006
112205,-0.663,-1.13,-9.373,-0.004,0.011,-0.006
112308,-0.649,-1.137,-9.395,-0.005,0.011,-0.006
112411,-0.661,-1.137,-9.366,-0.004,0.011,-0.006
112514,-0.654,-1.132,-9.378,-0.004,0.011,-0.006
112617,-0.661,-1.135,-9.371,-0.004,0.011,-0.006
112720,-0.663,-1.135,-9.388,-0.004,0.012,-0.006
112823,-0.646,-1.132,-9.371,-0.004,0.011,-0.005
112926,-0.661,-1.137,-9.371,-0.004,0.011,-0.006
113029,-0.654,-1.13,-9.39,-0.004,0.011,-0.006
113132,-0.651,-1.14,-9.378,-0.004,0.011,-0.006
113235,-0.654,-1.135,-9.373,-0.005,0.011,-0.006
113338,-0.658,-1.135,-9.383,-0.005,0.012,-0.006
113441,-0.661,-1.14,-9.383,-0.005,0.012,-0.006
113544,-0.661,-1.137,-9.373,-0.005,0.011,-0.006
113647,-0.661,-1.128,-9.364,-0.004,0.012,-0.006
113750,-0.654,-1.14,-9.376,-0.005,0.011,-0.005
113853,-0.661,-1.14,-9.373,-0.005,0.012,-0.006
113956,-0.651,-1.137,-9.383,-0.005,0.012,-0.006
114059,-0.646,-1.135,-9.371,-0.004,0.012,-0.006
114162,-0.646,-1.13,-9.376,-0.005,0.011,-0.006
114265,-0.661,-1.128,-9.373,-0.005,0.012,-0.006
114368,-0.649,-1.14,-9.373,-0.004,0.011,-0.006
114471,-0.654,-1.125,-9.373,-0.004,0.011,-0.006
114574,-0.654,-1.13,-9.369,-0.004,0.011,-0.006
114677,-0.661,-1.147,-9.38,-0.004,0.012,-0.006
114780,-0.656,-1.13,-9.385,-0.005,0.012,-0.006
114883,-0.654,-1.13,-9.378,-0.005,0.011,-0.006
114986,-0.661,-1.128,-9.371,-0.005,0.011,-0.006
115089,-0.646,-1.135,-9.383,-0.004,0.011,-0.006
115192,-0.663,-1.132,-9.378,-0.005,0.011,-0.006
115295,-0.658,-1.135,-9.373,-0.005,0.011,-0.006
115398,-0.663,-1.142,-9.376,-0.004,0.011,-0.006
115501,-0.658,-1.135,-9.376,-0.005,0.012,-0.006
115604,-0.666,-1.132,-9.364,-0.005,0.012,-0.006
115707,-0.658,-1.137,-9.378,-0.004,0.011,-0.006
115810,-0.654,-1.137,-9.366,-0.005,0.012,-0.005
115913,-0.658,-1.135,-9.383,-0.005,0.011,-0.006
116016,-0.661,-1.144,-9.376,-0.005,0.011,-0.006
116119,-0.654,-1.14,-9.371,-0.004,0.011,-0.006
116222,-0.663,-1.137,-9.385,-0.005,0.012,-0.006
116325,-0.668,-1.132,-9.385,-0.005,0.012,-0.006
116428,-0.658,-1.137,-9.39,-0.004,0.011,-0.006
116531,-0.654,-1.13,-9.39,-0.005,0.011,-0.006
116634,-0.661,-1.132,-9.378,-0.005,0.011,-0.006
116737,-0.661,-1.14,-9.373,-0.005,0.012,-0.005
116840,-0.646,-1.137,-9.364,-0.004,0.012,-0.006
116943,-0.658,-1.123,-9.388,-0.005,0.011,-0.006
117046,-0.658,-1.128,-9.361,-0.005,0.011,-0.006
117149,-0.661,-1.135,-9.385,-0.004,0.011,-0.006
117252,-0.654,-1.142,-9.364,-0.004,0.011,-0.006
117355,-0.658,-1.13,-9.371,-0.005,0.011,-0.006
117458,-0.656,-1.142,-9.383,-0.004,0.011,-0.006
117561,-0.658,-1.142,-9.378,-0.005,0.011,-0.006
117664,-0.661,-1.135,-9.376,-0.005,0.011,-0.006
117767,-0.666,-1.125,-9.38,-0.005,0.011,-0.006
117870,-0.656,-1.14,-9.373,-0.005,0.012,-0.006
117973,-0.646,-1.147,-9.361,-0.004,0.011,-0.006
118076,-0.656,-1.132,-9.369,-0.005,0.011,-0.006
118179,-0.654,-1.14,-9.388,-0.004,0.011,-0.006
118282,-0.658,-1.135,-9.383,-0.005,0.012,-0.006
118385,-0.661,-1.135,-9.378,-0.005,0.012,-0.006
118488,-0.651,-1.135,-9.366,-0.005,0.011,-0.006
118591,-0.658,-1.142,-9.359,-0.005,0.011,-0.006
118694,-0.661,-1.135,-9.38,-0.005,0.012,-0.006
118797,-0.656,-1.137,-9.38,-0.005,0.011,-0.006
118900,-0.658,-1.137,-9.378,-0.004,0.011,-0.006
119003,-0.651,-1.144,-9.38,-0.005,0.012,-0.006
119106,-0.658,-1.144,-9.373,-0.004,0.012,-0.006
119209,-0.654,-1.137,-9.373,-0.004,0.011,-0.006
119312,-0.656,-1.137,-9.38,-0.004,0.012,-0.006
119415,-0.658,-1.135,-9.369,-0.005,0.012,-0.006
119518,-0.661,-1.125,-9.373,-0.005,0.011,-0.006
119621,-0.661,-1.137,-9.371,-0.005,0.012,-0.006
119724,-0.658,-1.132,-9.38,-0.005,0.011,-0.006
119827,-0.661,-1.125,-9.38,-0.005,0.011,-0.006
119930,-0.661,-1.125,-9.383,-0.004,0.012,-0.006
120033,-0.663,-1.128,-9.378,-0.005,0.011,-0.006
120136,-0.668,-1.14,-9.369,-0.005,0.012,-0.006
120239,-0.661,-1.147,-9.373,-0.005,0.012,-0.006
120342,-0.649,-1.137,-9.38,-0.005,0.011,-0.006
120445,-0.668,-1.137,-9.383,-0.005,0.011,-0.006
120548,-0.658,-1.13,-9.369,-0.005,0.012,-0.005
120651,-0.661,-1.144,-9.371,-0.005,0.012,-0.006
120754,-0.646,-1.14,-9.366,-0.005,0.011,-0.006
120857,-0.663,-1.137,-9.376,-0.005,0.011,-0.006
120960,-0.651,-1.128,-9.385,-0.005,0.012,-0.006
121063,-0.658,-1.14,-9.371,-0.004,0.011,-0.006
121166,-0.654,-1.137,-9.38,-0.005,0.012,-0.006
121269,-0.656,-1.137,-9.392,-0.005,0.012,-0.005
121372,-0.656,-1.144,-9.369,-0.005,0.011,-0.006
121475,-0.654,-1.128,-9.378,-0.005,0.011,-0.006
121578,-0.646,-1.13,-9.378,-0.005,0.011,-0.006
121681,-0.661,-1.135,-9.376,-0.004,0.011,-0.006
121784,-0.651,-1.13,-9.361,-0.004,0.011,-0.006
121887,-0.658,-1.132,-9.376,-0.004,0.012,-0.006
121990,-0.654,-1.125,-9.38,-0.004,0.012,-0.006
122093,-0.649,-1.123,-9.385,-0.005,0.012,-0.006
122196,-0.654,-1.135,-9.38,-0.004,0.011,-0.006
122299,-0.656,-1.132,-9.361,-0.004,0.011,-0.006
122402,-0.666,-1.132,-9.373,-0.005,0.012,-0.006
122505,-0.654,-1.137,-9.38,-0.005,0.011,-0.006
122608,-0.658,-1.132,-9.385,-0.004,0.011,-0.006
122711,-0.656,-1.125,-9.38,-0.005,0.012,-0.006
122814,-0.649,-1.132,-9.364,-0.004,0.012,-0.006
122917,-0.656,-1.128,-9.378,-0.005,0.012,-0.006
123020,-0.656,-1.135,-9.373,-0.005,0.011,-0.006
123123,-0.654,-1.135,-9.357,-0.005,0.011,-0.006
123226,-0.651,-1.13,-9.366,-0.005,0.012,-0.006
123329,-0.654,-1.135,-9.371,-0.005,0.011,-0.006
123432,-0.658,-1.132,-9.378,-0.005,0.012,-0.006
123535,-0.651,-1.132,-9.378,-0.004,0.011,-0.006
123638,-0.649,-1.13,-9.376,-0.005,0.011,-0.006
123741,-0.651,-1.13,-9.383,-0.004,0.011,-0.006
123844,-0.656,-1.137,-9.392,-0.005,0.011,-0.006
123947,-0.661,-1.135,-9.369,-0.005,0.011,-0.006
124050,-0.656,-1.144,-9.378,-0.005,0.012,-0.006
124153,-0.656,-1.135,-9.385,-0.004,0.012,-0.006
124256,-0.656,-1.14,-9.376,-0.005,0.012,-0.006
124359,-0.658,-1.14,-9.38,-0.005,0.011,-0.006
124462,-0.658,-1.142,-9.371,-0.004,0.011,-0.006
124565,-0.656,-1.137,-9.357,-0.004,0.011,-0.006
124668,-0.661,-1.125,-9.378,-0.005,0.012,-0.006
124771,-0.656,-1.128,-9.378,-0.005,0.011,-0.006
124874,-0.654,-1.13,-9.385,-0.005,0.011,-0.006
124977,-0.654,-1.128,-9.376,-0.004,0.012,-0.006
125080,-0.656,-1.13,-9.366,-0.005,0.012,-0.006
125183,-0.666,-1.118,-9.373,-0.005,0.011,-0.006
125286,-0.656,-1.142,-9.354,-0.005,0.011,-0.006
125389,-0.661,-1.125,-9.361,-0.005,0.012,-0.006
125492,-0.651,-1.135,-9.378,-0.005,0.012,-0.006
125595,-0.654,-1.137,-9.39,-0.005,0.011,-0.006
125698,-0.649,-1.135,-9.378,-0.004,0.011,-0.006
125801,-0.649,-1.144,-9.373,-0.005,0.012,-0.007
125904,-0.658,-1.142,-9.385,-0.005,0.011,-0.006
126007,-0.656,-1.128,-9.395,-0.004,0.011,-0.006
126110,-0.656,-1.137,-9.371,-0.005,0.011,-0.006
126213,-0.656,-1.135,-9.371,-0.005,0.011,-0.006
126316,-0.646,-1.14,-9.376,-0.004,0.011,-0.006
126419,-0.649,-1.13,-9.38,-0.005,0.012,-0.006
126522,-0.661,-1.144,-9.373,-0.005,0.011,-0.005
126625,-0.656,-1.144,-9.378,-0.005,0.012,-0.006
126728,-0.656,-1.137,-9.38,-0.005,0.011,-0.005
126831,-0.651,-1.13,-9.376,-0.004,0.012,-0.006
126934,-0.663,-1.137,-9.392,-0.005,0.011,-0.006
127037,-0.656,-1.132,-9.378,-0.005,0.012,-0.006
127140,-0.651,-1.13,-9.376,-0.004,0.011,-0.006
127243,-0.666,-1.142,-9.38,-0.004,0.012,-0.006
127346,-0.656,-1.128,-9.369,-0.005,0.012,-0.006
127449,-0.651,-1.13,-9.376,-0.005,0.011,-0.006
127552,-0.661,-1.144,-9.383,-0.004,0.012,-0.006
127655,-0.658,-1.135,-9.383,-0.005,0.011,-0.006
127758,-0.646,-1.147,-9.364,-0.004,0.011,-0.006
127861,-0.656,-1.142,-9.376,-0.005,0.012,-0.005
127964,-0.654,-1.128,-9.38,-0.005,0.011,-0.006
128067,-0.661,-1.137,-9.385,-0.004,0.012,-0.006
128170,-0.654,-1.13,-9.376,-0.005,0.011,-0.005
128273,-0.656,-1.125,-9.364,-0.004,0.011,-0.006
128376,-0.666,-1.142,-9.373,-0.004,0.012,-0.006
128479,-0.658,-1.13,-9.373,-0.005,0.011,-0.006
128582,-0.656,-1.14,-9.38,-0.004,0.011,-0.006
128685,-0.654,-1.147,-9.383,-0.005,0.011,-0.006
128788,-0.654,-1.13,-9.39,-0.005,0.012,-0.006
128891,-0.651,-1.137,-9.385,-0.004,0.011,-0.006
128994,-0.651,-1.137,-9.378,-0.004,0.011,-0.006
129097,-0.661,-1.132,-9.376,-0.004,0.011,-0.006
129200,-0.658,-1.132,-9.371,-0.004,0.012,-0.006
129303,-0.666,-1.13,-9.373,-0.005,0.012,-0.005
129406,-0.654,-1.14,-9.39,-0.004,0.012,-0.006
129509,-0.654,-1.137,-9.369,-0.005,0.012,-0.006
129612,-0.649,-1.13,-9.369,-0.005,0.011,-0.006
129715,-0.658,-1.128,-9.376,-0.005,0.011,-0.006
129818,-0.654,-1.135,-9.373,-0.005,0.011,-0.006
129921,-0.654,-1.128,-9.373,-0.004,0.011,-0.006
130024,-0.656,-1.135,-9.369,-0.004,0.011,-0.006
130127,-0.668,-1.137,-9.378,-0.005,0.011,-0.006
130230,-0.666,-1.128,-9.357,-0.005,0.011,-0.006
130333,-0.649,-1.137,-9.373,-0.005,0.011,-0.006
130436,-0.656,-1.13,-9.392,-0.005,0.011,-0.006
130539,-0.658,-1.132,-9.38,-0.005,0.011,-0.006
130642,-0.656,-1.135,-9.397,-0.005,0.011,-0.006
130745,-0.654,-1.128,-9.385,-0.004,0.011,-0.006
130848,-0.654,-1.135,-9.385,-0.005,0.011,-0.006
130951,-0.654,-1.132,-9.366,-0.004,0.011,-0.006
131054,-0.646,-1.13,-9.371,-0.004,0.011,-0.006
131157,-0.661,-1.135,-9.383,-0.005,0.012,-0.006
131260,-0.666,-1.137,-9.371,-0.004,0.012,-0.006
131363,-0.654,-1.135,-9.383,-0.005,0.011,-0.006
131466,-0.661,-1.132,-9.38,-0.005,0.012,-0.006
131569,-0.668,-1.144,-9.371,-0.005,0.012,-0.006
131672,-0.673,-1.137,-9.371,-0.005,0.011,-0.006
131775,-0.658,-1.14,-9.383,-0.005,0.012,-0.006
131878,-0.656,-1.13,-9.369,-0.005,0.011,-0.006
131981,-0.656,-1.135,-9.38,-0.005,0.011,-0.006
132084,-0.668,-1.128,-9.361,-0.004,0.011,-0.006
132187,-0.658,-1.14,-9.373,-0.005,0.011,-0.006
132290,-0.649,-1.144,-9.392,-0.004,0.012,-0.006
132393,-0.661,-1.125,-9.383,-0.005,0.012,-0.006
132496,-0.656,-1.14,-9.385,-0.004,0.012,-0.006
132599,-0.649,-1.135,-9.357,-0.005,0.012,-0.005
132702,-0.663,-1.128,-9.376,-0.004,0.011,-0.006
132805,-0.656,-1.142,-9.366,-0.005,0.012,-0.006
132908,-0.656,-1.14,-9.395,-0.005,0.011,-0.006
133011,-0.658,-1.132,-9.378,-0.005,0.011,-0.006
133114,-0.663,-1.135,-9.373,-0.004,0.012,-0.006
133217,-0.651,-1.135,-9.388,-0.005,0.011,-0.006
133320,-0.658,-1.132,-9.373,-0.005,0.011,-0.006
133423,-0.639,-1.132,-9.373,-0.005,0.011,-0.006
133526,-0.651,-1.128,-9.378,-0.005,0.011,-0.006
133629,-0.656,-1.128,-9.359,-0.005,0.011,-0.006
133732,-0.656,-1.135,-9.39,-0.005,0.011,-0.006
133835,-0.654,-1.137,-9.38,-0.004,0.011,-0.006
133938,-0.656,-1.132,-9.371,-0.005,0.011,-0.005
134041,-0.661,-1.135,-9.376,-0.005,0.011,-0.006
134144,-0.654,-1.128,-9.383,-0.005,0.012,-0.006
134247,-0.658,-1.142,-9.378,-0.004,0.011,-0.006
134350,-0.658,-1.144,-9.371,-0.005,0.011,-0.006
134453,-0.658,-1.137,-9.371,-0.004,0.011,-0.006
134556,-0.663,-1.144,-9.383,-0.005,0.012,-0.006
134659,-0.651,-1.128,-9.383,-0.004,0.012,-0.006
134762,-0.656,-1.135,-9.388,-0.005,0.011,-0.006
134865,-0.663,-1.142,-9.378,-0.005,0.011,-0.006
134968,-0.656,-1.132,-9.376,-0.005,0.012,-0.006
135071,-0.656,-1.137,-9.371,-0.005,0.011,-0.006
135174,-0.654,-1.13,-9.378,-0.005,0.012,-0.006
135277,-0.663,-1.13,-9.383,-0.005,0.011,-0.006
135380,-0.649,-1.137,-9.383,-0.004,0.011,-0.006
135483,-0.658,-1.144,-9.369,-0.004,0.011,-0.006
135586,-0.649,-1.132,-9.38,-0.004,0.011,-0.006
135689,-0.661,-1.14,-9.376,-0.004,0.012,-0.006
135792,-0.658,-1.13,-9.378,-0.005,0.011,-0.006
135895,-0.656,-1.14,-9.383,-0.005,0.011,-0.006
135998,-0.661,-1.137,-9.373,-0.005,0.011,-0.006
136101,-0.654,-1.128,-9.369,-0.005,0.011,-0.006
136204,-0.668,-1.142,-9.383,-0.005,0.012,-0.006
136307,-0.646,-1.13,-9.383,-0.005,0.011,-0.006
136410,-0.654,-1.137,-9.378,-0.005,0.011,-0.006
136513,-0.649,-1.14,-9.4,-0.005,0.011,-0.006
136616,-0.656,-1.137,-9.383,-0.005,0.011,-0.006
136719,-0.656,-1.128,-9.38,-0.004,0.011,-0.006
136822,-0.661,-1.147,-9.373,-0.005,0.012,-0.006
136925,-0.668,-1.144,-9.385,-0.005,0.011,-0.006
137028,-0.668,-1.142,-9.383,-0.004,0.012,-0.006
137131,-0.654,-1.132,-9.361,-0.004,0.011,-0.006
137234,-0.673,-1.13,-9.366,-0.005,0.012,-0.006
137337,-0.656,-1.128,-9.373,-0.005,0.011,-0.006
137440,-0.656,-1.12,-9.376,-0.005,0.011,-0.006
137543,-0.666,-1.137,-9.371,-0.005,0.011,-0.006
137646,-0.658,-1.13,-9.397,-0.005,0.011,-0.006
137749,-0.663,-1.125,-9.385,-0.005,0.011,-0.006
137852,-0.654,-1.14,-9.373,-0.004,0.011,-0.006
137955,-0.651,-1.135,-9.369,-0.004,0.011,-0.006
138058,-0.661,-1.135,-9.38,-0.005,0.011,-0.006
138161,-0.658,-1.149,-9.385,-0.005,0.011,-0.006
138264,-0.658,-1.123,-9.378,-0.005,0.011,-0.006
138367,-0.658,-1.135,-9.38,-0.005,0.011,-0.006
138470,-0.654,-1.14,-9.376,-0.005,0.012,-0.006
138573,-0.654,-1.128,-9.366,-0.005,0.011,-0.006
138676,-0.658,-1.125,-9.373,-0.004,0.012,-0.006
138779,-0.649,-1.132,-9.38,-0.005,0.012,-0.005
138882,-0.661,-1.13,-9.373,-0.005,0.011,-0.006
138985,-0.656,-1.137,-9.366,-0.004,0.011,-0.006
139088,-0.663,-1.137,-9.39,-0.004,0.011,-0.006
139191,-0.649,-1.128,-9.373,-0.004,0.011,-0.006
139294,-0.661,-1.14,-9.388,-0.004,0.012,-0.006
139397,-0.654,-1.135,-9.38,-0.005,0.012,-0.006
139500,-0.661,-1.135,-9.388,-0.004,0.012,-0.006
139603,-0.656,-1.137,-9.369,-0.004,0.011,-0.006
139706,-0.646,-1.132,-9.383,-0.005,0.011,-0.006
139809,-0.658,-1.137,-9.373,-0.004,0.012,-0.006
139912,-0.658,-1.13,-9.383,-0.004,0.011,-0.006
140015,-0.656,-1.13,-9.376,-0.004,0.011,-0.006
140118,-0.654,-1.142,-9.378,-0.004,0.012,-0.006
140221,-0.658,-1.137,-9.376,-0.004,0.011,-0.006
140324,-0.654,-1.137,-9.38,-0.005,0.011,-0.006
140427,-0.661,-1.142,-9.388,-0.005,0.011,-0.006
140530,-0.649,-1.13,-9.366,-0.004,0.011,-0.006
140633,-0.651,-1.14,-9.38,-0.005,0.011,-0.006
140736,-0.661,-1.132,-9.376,-0.004,0.012,-0.005
140839,-0.656,-1.132,-9.388,-0.005,0.011,-0.005
140942,-0.658,-1.13,-9.38,-0.004,0.011,-0.006
141045,-0.668,-1.132,-9.378,-0.005,0.012,-0.006
141148,-0.666,-1.135,-9.38,-0.005,0.011,-0.006
141251,-0.654,-1.137,-9.385,-0.005,0.012,-0.006
141354,-0.651,-1.137,-9.371,-0.005,0.012,-0.006
141457,-0.666,-1.14,-9.39,-0.005,0.011,-0.006
141560,-0.651,-1.13,-9.383,-0.005,0.012,-0.006
141663,-0.658,-1.12,-9.385,-0.005,0.011,-0.006
141766,-0.658,-1.144,-9.376,-0.004,0.012,-0.006
141869,-0.656,-1.142,-9.376,-0.005,0.011,-0.006
141972,-0.654,-1.13,-9.376,-0.004,0.011,-0.006
142075,-0.646,-1.14,-9.376,-0.005,0.012,-0.006
142178,-0.651,-1.128,-9.388,-0.005,0.011,-0.006
142281,-0.654,-1.137,-9.378,-0.005,0.011,-0.006
142384,-0.651,-1.144,-9.39,-0.004,0.011,-0.006
142487,-0.661,-1.137,-9.376,-0.004,0.011,-0.006
142590,-0.654,-1.137,-9.378,-0.004,0.012,-0.006
142693,-0.658,-1.149,-9.361,-0.005,0.011,-0.006
142796,-0.651,-1.132,-9.392,-0.004,0.011,-0.005
142899,-0.654,-1.128,-9.38,-0.004,0.011,-0.006
143002,-0.656,-1.135,-9.383,-0.005,0.012,-0.006
143105,-0.656,-1.137,-9.383,-0.004,0.011,-0.006
143208,-0.651,-1.149,-9.392,-0.004,0.011,-0.005
143311,-0.663,-1.13,-9.385,-0.005,0.011,-0.005
143414,-0.651,-1.128,-9.39,-0.004,0.011,-0.006
143517,-0.656,-1.142,-9.38,-0.004,0.012,-0.006
143620,-0.651,-1.132,-9.38,-0.005,0.012,-0.006
143723,-0.661,-1.137,-9.385,-0.004,0.011,-0.006
143826,-0.661,-1.137,-9.383,-0.005,0.012,-0.005
143929,-0.654,-1.123,-9.38,-0.004,0.012,-0.006
144032,-0.663,-1.142,-9.376,-0.005,0.012,-0.006
144135,-0.651,-1.132,-9.383,-0.005,0.011,-0.006
144238,-0.656,-1.135,-9.4,-0.005,0.011,-0.006
144341,-0.654,-1.132,-9.385,-0.005,0.011,-0.006
144444,-0.654,-1.132,-9.395,-0.005,0.011,-0.006
144547,-0.661,-1.144,-9.388,-0.005,0.012,-0.006
144650,-0.654,-1.132,-9.39,-0.005,0.012,-0.006
144753,-0.651,-1.128,-9.376,-0.004,0.011,-0.006
144856,-0.661,-1.137,-9.373,-0.004,0.011,-0.006
144959,-0.642,-1.144,-9.383,-0.005,0.012,-0.006
145062,-0.654,-1.12,-9.378,-0.005,0.012,-0.006
145165,-0.651,-1.144,-9.373,-0.004,0.012,-0.006
145268,-0.661,-1.13,-9.376,-0.004,0.011,-0.005
145371,-0.661,-1.125,-9.369,-0.004,0.012,-0.006
145474,-0.663,-1.137,-9.366,-0.005,0.011,-0.006
145577,-0.661,-1.13,-9.388,-0.005,0.012,-0.006
145680,-0.656,-1.118,-9.388,-0.005,0.012,-0.006
145783,-0.666,-1.14,-9.39,-0.005,0.012,-0.006
145886,-0.658,-1.13,-9.371,-0.004,0.012,-0.006
145989,-0.663,-1.14,-9.388,-0.005,0.011,-0.006
146092,-0.656,-1.132,-9.383,-0.005,0.012,-0.006
146195,-0.651,-1.142,-9.392,-0.005,0.011,-0.006
146298,-0.646,-1.135,-9.38,-0.004,0.011,-0.006
146401,-0.658,-1.135,-9.39,-0.004,0.011,-0.006
146504,-0.661,-1.13,-9.369,-0.005,0.012,-0.006
146607,-0.649,-1.142,-9.38,-0.005,0.012,-0.005
146710,-0.649,-1.137,-9.385,-0.005,0.012,-0.006
146813,-0.649,-1.137,-9.38,-0.005,0.011,-0.006
146916,-0.651,-1.13,-9.383,-0.005,0.011,-0.006
147019,-0.654,-1.137,-9.383,-0.005,0.011,-0.006
147122,-0.661,-1.132,-9.388,-0.004,0.011,-0.006
147225,-0.649,-1.132,-9.373,-0.005,0.011,-0.006
147328,-0.663,-1.125,-9.38,-0.005,0.011,-0.006
147431,-0.663,-1.13,-9.385,-0.005,0.012,-0.006
147534,-0.661,-1.128,-9.366,-0.005,0.011,-0.006
147637,-0.658,-1.142,-9.378,-0.004,0.011,-0.006
147740,-0.651,-1.132,-9.39,-0.005,0.012,-0.006
147843,-0.654,-1.135,-9.385,-0.005,0.011,-0.005
147946,-0.651,-1.14,-9.385,-0.004,0.011,-0.006
148049,-0.658,-1.13,-9.38,-0.005,0.011,-0.006
148152,-0.661,-1.125,-9.378,-0.004,0.012,-0.006
148255,-0.656,-1.144,-9.385,-0.005,0.012,-0.006
148358,-0.67,-1.135,-9.38,-0.004,0.011,-0.005
148461,-0.666,-1.135,-9.38,-0.005,0.012,-0.006
148564,-0.656,-1.137,-9.376,-0.004,0.011,-0.006
148667,-0.661,-1.142,-9.373,-0.005,0.011,-0.006
148770,-0.649,-1.137,-9.376,-0.005,0.012,-0.006
148873,-0.666,-1.142,-9.383,-0.004,0.011,-0.006
148976,-0.663,-1.118,-9.392,-0.004,0.011,-0.006
149079,-0.658,-1.128,-9.376,-0.005,0.011,-0.006
149182,-0.656,-1.132,-9.378,-0.005,0.012,-0.006
149285,-0.654,-1.128,-9.38,-0.005,0.012,-0.006
149388,-0.666,-1.14,-9.388,-0.005,0.012,-0.006
149491,-0.651,-1.125,-9.39,-0.005,0.011,-0.006
149594,-0.661,-1.135,-9.39,-0.005,0.011,-0.006
149697,-0.651,-1.132,-9.371,-0.005,0.011,-0.006
149800,-0.658,-1.128,-9.383,-0.005,0.011,-0.006
149903,-0.654,-1.125,-9.378,-0.005,0.011,-0.006
150006,-0.661,-1.135,-9.392,-0.004,0.011,-0.006
150109,-0.661,-1.13,-9.385,-0.005,0.011,-0.006
150212,-0.661,-1.123,-9.378,-0.005,0.011,-0.006
150315,-0.651,-1.137,-9.376,-0.005,0.011,-0.006
150418,-0.663,-1.132,-9.378,-0.004,0.012,-0.006
150521,-0.656,-1.14,-9.376,-0.004,0.012,-0.006
150624,-0.651,-1.135,-9.364,-0.005,0.011,-0.006
150727,-0.654,-1.137,-9.383,-0.004,0.011,-0.006
150830,-0.656,-1.137,-9.385,-0.005,0.011,-0.006
150933,-0.654,-1.128,-9.39,-0.005,0.011,-0.006
151036,-0.666,-1.314,-9.364,0.21,-0.002,-0.014
151139,-0.663,-1.384,-9.342,0.017,0.01,-0.006
151242,-0.668,-1.377,-9.337,-0.003,0.012,-0.006
151345,-0.68,-1.374,-9.347,-0.005,0.011,-0.006
151448,-0.673,-1.372,-9.349,-0.004,0.011,-0.006
151551,-0.673,-1.379,-9.354,-0.004,0.012,-0.006
151654,-0.666,-1.389,-9.352,-0.005,0.011,-0.006
151757,-0.67,-1.372,-9.335,-0.005,0.011,-0.006
151860,-0.668,-1.379,-9.345,-0.005,0.011,-0.006
151963,-0.663,-1.381,-9.342,-0.005,0.011,-0.006
152066,-0.666,-1.369,-9.345,-0.004,0.011,-0.006
152169,-0.666,-1.384,-9.354,-0.004,0.011,-0.006
152272,-0.661,-1.377,-9.345,-0.005,0.012,-0.006
152375,-0.67,-1.372,-9.352,-0.005,0.011,-0.006
152478,-0.67,-1.386,-9.354,-0.004,0.011,-0.006
152581,-0.668,-1.367,-9.352,-0.005,0.011,-0.006
152684,-0.67,-1.362,-9.342,-0.005,0.012,-0.006
152787,-0.678,-1.391,-9.354,-0.005,0.011,-0.006
152890,-0.666,-1.379,-9.337,-0.005,0.011,-0.006
152993,-0.663,-1.389,-9.345,-0.005,0.012,-0.006
153096,-0.666,-1.372,-9.33,-0.005,0.012,-0.006
153199,-0.675,-1.384,-9.34,-0.005,0.011,-0.006
153302,-0.666,-1.384,-9.347,-0.004,0.011,-0.006
153405,-0.668,-1.374,-9.357,-0.005,0.011,-0.006
153508,-0.673,-1.381,-9.347,-0.005,0.011,-0.006
153611,-0.668,-1.386,-9.345,-0.005,0.011,-0.006
153714,-0.668,-1.377,-9.342,-0.005,0.011,-0.006
153817,-0.67,-1.374,-9.349,-0.004,0.011,-0.006
153920,-0.67,-1.372,-9.347,-0.005,0.011,-0.006
154023,-0.661,-1.372,-9.34,-0.004,0.011,-0.006
154126,-0.668,-1.377,-9.347,-0.004,0.011,-0.006
154229,-0.675,-1.379,-9.337,-0.004,0.011,-0.006
154332,-0.67,-1.369,-9.335,-0.004,0.012,-0.006
154435,-0.67,-1.386,-9.347,-0.005,0.011,-0.006
154538,-0.67,-1.377,-9.335,-0.005,0.012,-0.006
154641,-0.67,-1.374,-9.347,-0.004,0.011,-0.006
154744,-0.673,-1.381,-9.354,-0.004,0.011,-0.006
154847,-0.666,-1.384,-9.347,-0.005,0.011,-0.006
154950,-0.678,-1.381,-9.342,-0.004,0.012,-0.006
155053,-0.678,-1.396,-9.345,-0.005,0.011,-0.005
155156,-0.675,-1.369,-9.333,-0.005,0.012,-0.006
155259,-0.675,-1.377,-9.345,-0.004,0.011,-0.006
155362,-0.661,-1.379,-9.337,-0.005,0.011,-0.006
155465,-0.678,-1.379,-9.352,-0.005,0.011,-0.006
155568,-0.668,-1.379,-9.354,-0.004,0.011,-0.006
155671,-0.668,-1.377,-9.361,-0.004,0.011,-0.006
155774,-0.668,-1.377,-9.357,-0.004,0.011,-0.006
155877,-0.67,-1.379,-9.347,-0.005,0.011,-0.006
155980,-0.67,-1.384,-9.347,-0.004,0.011,-0.006
156083,-0.675,-1.377,-9.342,-0.004,0.011,-0.006
156186,-0.675,-1.374,-9.33,-0.004,0.011,-0.006
156289,-0.67,-1.374,-9.349,-0.004,0.011,-0.006
156392,-0.668,-1.381,-9.342,-0.004,0.012,-0.006
156495,-0.668,-1.379,-9.352,-0.005,0.011,-0.006
156598,-0.666,-1.379,-9.34,-0.005,0.012,-0.006
156701,-0.678,-1.377,-9.352,-0.005,0.012,-0.006
156804,-0.656,-1.369,-9.337,-0.005,0.012,-0.006
156907,-0.654,-1.381,-9.357,-0.005,0.011,-0.006
157010,-0.666,-1.386,-9.33,-0.005,0.012,-0.006
157113,-0.67,-1.367,-9.34,-0.004,0.012,-0.006
157216,-0.666,-1.386,-9.364,-0.005,0.011,-0.006
157319,-0.67,-1.379,-9.347,-0.005,0.011,-0.006
157422,-0.675,-1.377,-9.359,-0.005,0.011,-0.006
157525,-0.675,-1.391,-9.342,-0.004,0.011,-0.006
157628,-0.666,-1.379,-9.347,-0.005,0.011,-0.006
157731,-0.678,-1.389,-9.345,-0.005,0.012,-0.006
157834,-0.678,-1.389,-9.347,-0.005,0.011,-0.006
157937,-0.668,-1.377,-9.337,-0.005,0.011,-0.006
158040,-0.668,-1.377,-9.34,-0.005,0.011,-0.006
158143,-0.666,-1.379,-9.349,-0.004,0.012,-0.006
158246,-0.67,-1.367,-9.352,-0.005,0.012,-0.006
158349,-0.67,-1.381,-9.345,-0.005,0.011,-0.006
158452,-0.675,-1.379,-9.347,-0.004,0.012,-0.006
158555,-0.663,-1.386,-9.335,-0.005,0.012,-0.006
158658,-0.661,-1.379,-9.347,-0.005,0.012,-0.006
158761,-0.675,-1.377,-9.357,-0.005,0.011,-0.006
158864,-0.658,-1.389,-9.347,-0.005,0.012,-0.006
158967,-0.67,-1.377,-9.352,-0.005,0.011,-0.006
159070,-0.67,-1.377,-9.349,-0.005,0.011,-0.006
159173,-0.666,-1.381,-9.347,-0.005,0.011,-0.006
159276,-0.67,-1.379,-9.349,-0.005,0.012,-0.006
159379,-0.668,-1.381,-9.349,-0.004,0.011,-0.006
159482,-0.658,-1.377,-9.34,-0.005,0.011,-0.006
159585,-0.666,-1.367,-9.34,-0.004,0.011,-0.006
159688,-0.663,-1.377,-9.347,-0.005,0.011,-0.006
159791,-0.68,-1.384,-9.352,-0.005,0.011,-0.006
159894,-0.673,-1.377,-9.357,-0.005,0.012,-0.006
159997,-0.675,-1.384,-9.352,-0.004,0.012,-0.006
160100,-0.661,-1.377,-9.357,-0.005,0.011,-0.006
160203,-0.68,-1.374,-9.34,-0.005,0.011,-0.006
160306,-0.668,-1.379,-9.345,-0.005,0.011,-0.006
160409,-0.673,-1.367,-9.337,-0.004,0.012,-0.006
160512,-0.673,-1.374,-9.349,-0.004,0.012,-0.005
160615,-0.668,-1.377,-9.345,-0.005,0.011,-0.006
160718,-0.658,-1.384,-9.349,-0.005,0.011,-0.006
160821,-0.663,-1.379,-9.345,-0.004,0.011,-0.006
160924,-0.673,-1.379,-9.369,-0.005,0.011,-0.006
161027,-0.68,-1.381,-9.349,-0.004,0.011,-0.006
161130,-0.673,-1.384,-9.342,-0.005,0.011,-0.006
161233,-0.666,-1.384,-9.342,-0.005,0.011,-0.006
161336,-0.67,-1.377,-9.357,-0.005,0.012,-0.006
161439,-0.668,-1.389,-9.352,-0.004,0.012,-0.006
161542,-0.675,-1.381,-9.34,-0.005,0.011,-0.005
161645,-0.673,-1.379,-9.33,-0.004,0.012,-0.006
161748,-0.67,-1.391,-9.33,-0.004,0.011,-0.006
161851,-0.663,-1.389,-9.337,-0.005,0.011,-0.006
161954,-0.666,-1.379,-9.345,-0.004,0.012,-0.006
162057,-0.675,-1.377,-9.337,-0.004,0.011,-0.006
162160,-0.673,-1.374,-9.335,-0.005,0.011,-0.006
162263,-0.663,-1.381,-9.354,-0.005,0.011,-0.006
162366,-0.67,-1.379,-9.34,-0.005,0.011,-0.006
162469,-0.668,-1.381,-9.345,-0.005,0.012,-0.006
162572,-0.666,-1.372,-9.349,-0.005,0.011,-0.006
162675,-0.67,-1.384,-9.33,-0.005,0.011,-0.006
162778,-0.67,-1.386,-9.34,-0.005,0.011,-0.006
162881,-0.685,-1.384,-9.342,-0.005,0.011,-0.006
162984,-0.675,-1.374,-9.34,-0.004,0.012,-0.006
163087,-0.673,-1.377,-9.345,-0.005,0.012,-0.006
163190,-0.666,-1.379,-9.349,-0.005,0.012,-0.006
163293,-0.673,-1.367,-9.352,-0.005,0.012,-0.006
163396,-0.668,-1.384,-9.347,-0.004,0.011,-0.006
163499,-0.666,-1.384,-9.337,-0.005,0.011,-0.006
163602,-0.663,-1.384,-9.342,-0.004,0.012,-0.006
163705,-0.673,-1.384,-9.352,-0.005,0.012,-0.006
163808,-0.668,-1.379,-9.352,-0.005,0.011,-0.006
163911,-0.666,-1.379,-9.337,-0.004,0.011,-0.006
164014,-0.668,-1.377,-9.354,-0.005,0.012,-0.006
164117,-0.668,-1.369,-9.354,-0.004,0.012,-0.006
164220,-0.678,-1.384,-9.328,-0.005,0.012,-0.006
164323,-0.668,-1.384,-9.354,-0.004,0.012,-0.006
164426,-0.673,-1.379,-9.357,-0.005,0.011,-0.006
164529,-0.663,-1.386,-9.345,-0.005,0.012,-0.006
164632,-0.663,-1.384,-9.33,-0.004,0.011,-0.006
164735,-0.675,-1.374,-9.359,-0.004,0.011,-0.006
164838,-0.67,-1.374,-9.354,-0.005,0.011,-0.006
164941,-0.678,-1.379,-9.342,-0.005,0.011,-0.006
165044,-0.661,-1.384,-9.337,-0.005,0.011,-0.006
165147,-0.675,-1.379,-9.342,-0.005,0.011,-0.006
165250,-0.673,-1.386,-9.345,-0.005,0.011,-0.006
165353,-0.675,-1.389,-9.345,-0.004,0.011,-0.006
165456,-0.673,-1.379,-9.342,-0.004,0.011,-0.006
165559,-0.668,-1.377,-9.345,-0.005,0.011,-0.006
165662,-0.673,-1.377,-9.333,-0.005,0.012,-0.006
165765,-0.673,-1.374,-9.335,-0.005,0.011,-0.006
165868,-0.666,-1.384,-9.347,-0.004,0.012,-0.006
165971,-0.67,-1.389,-9.345,-0.005,0.011,-0.006
166074,-0.673,-1.377,-9.335,-0.005,0.011,-0.006
166177,-0.666,-1.384,-9.349,-0.005,0.011,-0.006
166280,-0.668,-1.372,-9.349,-0.005,0.011,-0.006
166383,-0.673,-1.372,-9.352,-0.005,0.012,-0.006
166486,-0.675,-1.384,-9.349,-0.005,0.011,-0.006
166589,-0.658,-1.381,-9.342,-0.005,0.011,-0.006
166692,-0.68,-1.386,-9.345,-0.004,0.011,-0.006
166795,-0.678,-1.386,-9.347,-0.004,0.011,-0.006
166898,-0.666,-1.379,-9.349,-0.005,0.011,-0.006
167001,-0.673,-1.384,-9.357,-0.005,0.012,-0.006
167104,-0.666,-1.372,-9.347,-0.005,0.011,-0.006
167207,-0.666,-1.372,-9.34,-0.005,0.011,-0.006
167310,-0.673,-1.381,-9.354,-0.005,0.012,-0.006
167413,-0.661,-1.381,-9.333,-0.005,0.012,-0.006
167516,-0.663,-1.374,-9.345,-0.005,0.011,-0.006
167619,-0.668,-1.389,-9.349,-0.004,0.011,-0.006
167722,-0.675,-1.379,-9.357,-0.005,0.012,-0.006
167825,-0.678,-1.391,-9.357,-0.005,0.011,-0.006
167928,-0.675,-1.379,-9.359,-0.004,0.011,-0.006
168031,-0.668,-1.379,-9.347,-0.005,0.011,-0.005
168134,-0.666,-1.384,-9.359,-0.005,0.011,-0.006
168237,-0.673,-1.374,-9.345,-0.005,0.012,-0.006
168340,-0.663,-1.374,-9.333,-0.005,0.012,-0.006
168443,-0.682,-1.372,-9.354,-0.005,0.011,-0.006
168546,-0.673,-1.381,-9.335,-0.005,0.011,-0.006
168649,-0.668,-1.372,-9.347,-0.004,0.012,-0.006
168752,-0.661,-1.377,-9.357,-0.005,0.011,-0.006
168855,-0.663,-1.374,-9.345,-0.005,0.012,-0.006
168958,-0.661,-1.372,-9.345,-0.005,0.011,-0.006
169061,-0.675,-1.379,-9.335,-0.005,0.011,-0.006
169164,-0.663,-1.367,-9.349,-0.005,0.011,-0.006
169267,-0.668,-1.372,-9.357,-0.004,0.012,-0.006
169370,-0.668,-1.377,-9.34,-0.004,0.012,-0.006
169473,-0.666,-1.369,-9.349,-0.005,0.012,-0.006
169576,-0.675,-1.379,-9.347,-0.005,0.012,-0.006
169679,-0.668,-1.374,-9.352,-0.005,0.012,-0.006
169782,-0.675,-1.386,-9.34,-0.004,0.012,-0.006
169885,-0.675,-1.384,-9.357,-0.005,0.011,-0.006
169988,-0.68,-1.369,-9.352,-0.005,0.012,-0.006
170091,-0.673,-1.381,-9.342,-0.005,0.011,-0.006
170194,-0.67,-1.384,-9.325,-0.005,0.011,-0.006
170297,-0.663,-1.377,-9.349,-0.005,0.012,-0.006
170400,-0.666,-1.372,-9.342,-0.004,0.012,-0.006
170503,-0.658,-1.374,-9.34,-0.004,0.011,-0.006
170606,-0.668,-1.384,-9.347,-0.004,0.011,-0.006
170709,-0.666,-1.384,-9.34,-0.005,0.012,-0.006
170812,-0.678,-1.389,-9.335,-0.005,0.012,-0.006
170915,-0.661,-1.389,-9.357,-0.004,0.011,-0.006
171018,-0.661,-1.386,-9.337,-0.005,0.011,-0.006
171121,-0.678,-1.372,-9.352,-0.005,0.011,-0.005
171224,-0.67,-1.377,-9.354,-0.004,0.012,-0.006
171327,-0.673,-1.381,-9.342,-0.004,0.011,-0.006
171430,-0.67,-1.384,-9.354,-0.005,0.011,-0.006
171533,-0.68,-1.384,-9.335,-0.004,0.011,-0.006
171636,-0.675,-1.369,-9.354,-0.005,0.011,-0.005
171739,-0.666,-1.386,-9.347,-0.004,0.011,-0.006
171842,-0.673,-1.377,-9.349,-0.005,0.011,-0.006
171945,-0.666,-1.372,-9.347,-0.005,0.012,-0.006
172048,-0.663,-1.386,-9.342,-0.004,0.011,-0.006
172151,-0.668,-1.374,-9.342,-0.005,0.011,-0.006
172254,-0.673,-1.377,-9.34,-0.004,0.011,-0.006
172357,-0.666,-1.386,-9.34,-0.005,0.011,-0.006
172460,-0.68,-1.381,-9.349,-0.004,0.012,-0.006
172563,-0.668,-1.384,-9.333,-0.005,0.012,-0.006
172666,-0.663,-1.381,-9.347,-0.004,0.011,-0.006
172769,-0.663,-1.377,-9.342,-0.005,0.011,-0.006
172872,-0.67,-1.381,-9.345,-0.005,0.011,-0.005
172975,-0.675,-1.381,-9.342,-0.005,0.011,-0.006
173078,-0.678,-1.379,-9.337,-0.005,0.011,-0.005
173181,-0.666,-1.379,-9.335,-0.004,0.011,-0.006
173284,-0.668,-1.381,-9.345,-0.004,0.011,-0.006
173387,-0.673,-1.372,-9.34,-0.005,0.012,-0.006
173490,-0.663,-1.381,-9.347,-0.005,0.011,-0.006
173593,-0.666,-1.384,-9.345,-0.005,0.011,-0.006
173696,-0.656,-1.384,-9.342,-0.004,0.012,-0.006
173799,-0.673,-1.386,-9.347,-0.005,0.011,-0.006
173902,-0.668,-1.369,-9.333,-0.004,0.012,-0.006
174005,-0.663,-1.386,-9.347,-0.005,0.011,-0.006
174108,-0.666,-1.379,-9.357,-0.005,0.011,-0.006
174211,-0.67,-1.379,-9.342,-0.005,0.012,-0.006
174314,-0.678,-1.384,-9.349,-0.005,0.012,-0.006
174417,-0.673,-1.381,-9.347,-0.005,0.011,-0.006
174520,-0.663,-1.377,-9.328,-0.005,0.011,-0.006
174623,-0.673,-1.384,-9.34,-0.005,0.012,-0.006
174726,-0.673,-1.381,-9.347,-0.004,0.012,-0.006
174829,-0.67,-1.379,-9.357,-0.005,0.011,-0.006
174932,-0.673,-1.389,-9.349,-0.004,0.012,-0.006
175035,-0.675,-1.374,-9.335,-0.005,0.011,-0.006
175138,-0.668,-1.377,-9.349,-0.004,0.011,-0.006
175241,-0.67,-1.396,-9.34,-0.005,0.012,-0.006
175344,-0.663,-1.381,-9.352,-0.005,0.011,-0.006
175447,-0.668,-1.391,-9.347,-0.005,0.012,-0.006
175550,-0.67,-1.374,-9.342,-0.005,0.012,-0.006
175653,-0.673,-1.374,-9.34,-0.004,0.011,-0.006
175756,-0.68,-1.389,-9.34,-0.005,0.011,-0.006
175859,-0.68,-1.374,-9.342,-0.005,0.012,-0.006
175962,-0.673,-1.384,-9.33,-0.004,0.012,-0.006
176065,-0.661,-1.377,-9.354,-0.004,0.012,-0.006
176168,-0.668,-1.379,-9.342,-0.005,0.012,-0.006
176271,-0.678,-1.381,-9.342,-0.004,0.011,-0.006
176374,-0.673,-1.384,-9.352,-0.005,0.012,-0.005
176477,-0.668,-1.379,-9.342,-0.005,0.012,-0.006
176580,-0.675,-1.379,-9.34,-0.004,0.012,-0.006
176683,-0.673,-1.381,-9.349,-0.005,0.011,-0.006
176786,-0.675,-1.384,-9.352,-0.005,0.012,-0.006
176889,-0.666,-1.386,-9.347,-0.005,0.012,-0.006
176992,-0.67,-1.381,-9.34,-0.004,0.011,-0.006
177095,-0.666,-1.386,-9.345,-0.005,0.012,-0.006
177198,-0.682,-1.384,-9.328,-0.005,0.011,-0.006
177301,-0.661,-1.381,-9.352,-0.005,0.011,-0.006
177404,-0.668,-1.389,-9.354,-0.004,0.012,-0.006
177507,-0.663,-1.379,-9.337,-0.005,0.011,-0.006
177610,-0.675,-1.377,-9.34,-0.004,0.012,-0.006
177713,-0.675,-1.393,-9.333,-0.005,0.011,-0.006
177816,-0.666,-1.384,-9.366,-0.005,0.012,-0.006
177919,-0.675,-1.379,-9.352,-0.005,0.011,-0.006
178022,-0.666,-1.381,-9.349,-0.005,0.011,-0.006
178125,-0.67,-1.374,-9.349,-0.005,0.012,-0.006
178228,-0.678,-1.379,-9.347,-0.004,0.012,-0.006
178331,-0.673,-1.384,-9.349,-0.005,0.011,-0.006
178434,-0.678,-1.377,-9.337,-0.005,0.012,-0.006
178537,-0.67,-1.384,-9.349,-0.004,0.011,-0.006
178640,-0.68,-1.379,-9.337,-0.004,0.012,-0.006
178743,-0.666,-1.379,-9.337,-0.005,0.011,-0.006
178846,-0.663,-1.377,-9.34,-0.005,0.012,-0.006
178949,-0.673,-1.374,-9.352,-0.004,0.011,-0.006
179052,-0.663,-1.379,-9.345,-0.004,0.012,-0.006
179155,-0.673,-1.393,-9.349,-0.005,0.012,-0.006
179258,-0.673,-1.381,-9.354,-0.005,0.011,-0.006
179361,-0.675,-1.372,-9.349,-0.005,0.011,-0.006
179464,-0.675,-1.389,-9.335,-0.005,0.011,-0.006
179567,-0.663,-1.386,-9.345,-0.005,0.012,-0.006
179670,-0.673,-1.381,-9.357,-0.004,0.012,-0.006
179773,-0.673,-1.384,-9.345,-0.005,0.012,-0.006
179876,-0.666,-1.384,-9.347,-0.004,0.012,-0.006
179979,-0.673,-1.381,-9.354,-0.005,0.012,-0.006
180082,-0.668,-1.372,-9.342,-0.005,0.012,-0.006
180185,-0.661,-1.384,-9.361,-0.005,0.011,-0.006
180288,-0.678,-1.369,-9.333,-0.005,0.011,-0.006
180391,-0.675,-1.384,-9.342,-0.005,0.012,-0.006
180494,-0.675,-1.391,-9.342,-0.004,0.012,-0.006
180597,-0.666,-1.377,-9.34,-0.004,0.012,-0.006
180700,-0.663,-1.379,-9.347,-0.005,0.011,-0.006
180803,-0.685,-1.381,-9.34,-0.005,0.012,-0.006
180906,-0.668,-1.372,-9.337,-0.005,0.012,-0.006
181009,-0.661,-1.377,-9.34,-0.005,0.012,-0.006
181112,-0.666,-1.379,-9.33,-0.005,0.011,-0.006
181215,-0.661,-1.381,-9.349,-0.005,0.012,-0.006
181318,-0.67,-1.381,-9.342,-0.004,0.011,-0.006
181421,-0.673,-1.386,-9.337,-0.005,0.011,-0.006
181524,-0.675,-1.386,-9.342,-0.005,0.012,-0.006
181627,-0.675,-1.391,-9.337,-0.005,0.011,-0.006
181730,-0.668,-1.377,-9.349,-0.005,0.012,-0.006
181833,-0.673,-1.391,-9.333,-0.004,0.012,-0.006
181936,-0.666,-1.381,-9.337,-0.005,0.012,-0.005
182039,-0.67,-1.386,-9.335,-0.005,0.011,-0.006
182142,-0.673,-1.389,-9.352,-0.005,0.011,-0.006
182245,-0.663,-1.374,-9.347,-0.004,0.012,-0.006
182348,-0.668,-1.384,-9.347,-0.005,0.011,-0.006
182451,-0.67,-1.372,-9.34,-0.005,0.011,-0.006
182554,-0.668,-1.384,-9.337,-0.005,0.012,-0.006
182657,-0.666,-1.379,-9.354,-0.005,0.011,-0.005
182760,-0.673,-1.379,-9.34,-0.005,0.012,-0.006
182863,-0.663,-1.381,-9.345,-0.005,0.011,-0.006
182966,-0.678,-1.377,-9.359,-0.005,0.011,-0.006
183069,-0.67,-1.384,-9.354,-0.004,0.011,-0.006
183172,-0.675,-1.379,-9.349,-0.005,0.011,-0.006
183275,-0.661,-1.386,-9.335,-0.005,0.011,-0.006
183378,-0.673,-1.381,-9.325,-0.005,0.012,-0.006
183481,-0.666,-1.379,-9.328,-0.004,0.011,-0.006
183584,-0.675,-1.386,-9.352,-0.005,0.012,-0.006
183687,-0.668,-1.372,-9.335,-0.004,0.012,-0.006
183790,-0.68,-1.384,-9.345,-0.005,0.011,-0.006
183893,-0.673,-1.379,-9.33,-0.004,0.011,-0.006
183996,-0.673,-1.377,-9.337,-0.005,0.012,-0.006
184099,-0.666,-1.386,-9.354,-0.005,0.012,-0.006
184202,-0.658,-1.381,-9.347,-0.005,0.012,-0.006
184305,-0.656,-1.374,-9.347,-0.005,0.011,-0.006
184408,-0.666,-1.386,-9.347,-0.005,0.011,-0.006
184511,-0.668,-1.377,-9.347,-0.004,0.012,-0.006
184614,-0.668,-1.381,-9.342,-0.005,0.011,-0.006
184717,-0.666,-1.381,-9.347,-0.004,0.011,-0.006
184820,-0.67,-1.381,-9.347,-0.004,0.011,-0.005
184923,-0.666,-1.391,-9.342,-0.005,0.012,-0.006
185026,-0.685,-1.374,-9.335,-0.005,0.011,-0.006
185129,-0.675,-1.374,-9.357,-0.005,0.011,-0.006
185232,-0.67,-1.386,-9.354,-0.005,0.011,-0.006
185335,-0.668,-1.384,-9.352,-0.005,0.011,-0.006
185438,-0.668,-1.374,-9.34,-0.005,0.011,-0.006
185541,-0.673,-1.379,-9.352,-0.005,0.012,-0.006
185644,-0.68,-1.381,-9.347,-0.005,0.011,-0.006
185747,-0.67,-1.374,-9.345,-0.005,0.012,-0.006
185850,-0.675,-1.386,-9.34,-0.005,0.012,-0.006
185953,-0.668,-1.381,-9.342,-0.005,0.012,-0.006
186056,-0.675,-1.379,-9.349,-0.005,0.012,-0.006
186159,-0.67,-1.384,-9.357,-0.005,0.011,-0.006
186262,-0.675,-1.379,-9.347,-0.004,0.011,-0.006
186365,-0.67,-1.381,-9.354,-0.005,0.012,-0.006
186468,-0.663,-1.381,-9.347,-0.005,0.012,-0.006
186571,-0.666,-1.374,-9.352,-0.004,0.012,-0.006
186674,-0.67,-1.389,-9.335,-0.005,0.011,-0.006
186777,-0.666,-1.379,-9.357,-0.005,0.012,-0.006
186880,-0.668,-1.372,-9.337,-0.004,0.011,-0.006
186983,-0.675,-1.381,-9.333,-0.005,0.011,-0.006
187086,-0.668,-1.384,-9.347,-0.005,0.011,-0.006
187189,-0.675,-1.379,-9.369,-0.004,0.012,-0.006
187292,-0.673,-1.381,-9.354,-0.005,0.012,-0.006
187395,-0.668,-1.384,-9.347,-0.005,0.011,-0.006
187498,-0.675,-1.391,-9.337,-0.005,0.012,-0.006
187601,-0.666,-1.372,-9.352,-0.004,0.011,-0.006
187704,-0.678,-1.381,-9.354,-0.004,0.012,-0.006
187807,-0.678,-1.377,-9.354,-0.004,0.012,-0.006
187910,-0.675,-1.374,-9.34,-0.005,0.012,-0.006
188013,-0.663,-1.381,-9.325,-0.004,0.012,-0.006
188116,-0.668,-1.386,-9.323,-0.005,0.011,-0.006
188219,-0.67,-1.374,-9.335,-0.004,0.011,-0.006
188322,-0.668,-1.389,-9.352,-0.005,0.011,-0.006
188425,-0.663,-1.377,-9.34,-0.005,0.012,-0.006
188528,-0.668,-1.374,-9.352,-0.005,0.012,-0.006
188631,-0.663,-1.391,-9.33,-0.004,0.011,-0.006
188734,-0.675,-1.381,-9.347,-0.005,0.011,-0.006
188837,-0.666,-1.372,-9.33,-0.005,0.012,-0.006
188940,-0.67,-1.386,-9.337,-0.005,0.011,-0.006
189043,-0.673,-1.369,-9.335,-0.005,0.011,-0.006
189146,-0.678,-1.384,-9.335,-0.005,0.011,-0.006
189249,-0.675,-1.384,-9.357,-0.005,0.011,-0.006
189352,-0.673,-1.379,-9.347,-0.005,0.012,-0.005
189455,-0.673,-1.381,-9.357,-0.004,0.012,-0.006
189558,-0.666,-1.381,-9.345,-0.005,0.011,-0.006
189661,-0.67,-1.374,-9.364,-0.005,0.012,-0.006
189764,-0.675,-1.381,-9.354,-0.005,0.012,-0.006
189867,-0.678,-1.381,-9.335,-0.005,0.012,-0.006
189970,-0.67,-1.374,-9.345,-0.005,0.011,-0.006
190073,-0.675,-1.386,-9.352,-0.005,0.012,-0.006
190176,-0.668,-1.384,-9.325,-0.005,0.012,-0.006
190279,-0.673,-1.393,-9.347,-0.005,0.011,-0.006
190382,-0.67,-1.374,-9.347,-0.005,0.011,-0.006
190485,-0.666,-1.386,-9.34,-0.004,0.012,-0.006
190588,-0.67,-1.381,-9.352,-0.005,0.011,-0.006
190691,-0.666,-1.381,-9.347,-0.005,0.011,-0.005
190794,-0.666,-1.381,-9.335,-0.004,0.012,-0.006
190897,-0.678,-1.384,-9.34,-0.004,0.012,-0.006
191000,-0.666,-1.377,-9.34,-0.004,0.011,-0.005
191103,-0.67,-1.379,-9.352,-0.005,0.012,-0.006
191206,-0.673,-1.386,-9.342,-0.005,0.011,-0.005
191309,-0.67,-1.374,-9.361,-0.005,0.012,-0.006
191412,-0.668,-1.379,-9.342,-0.005,0.011,-0.006
191515,-0.682,-1.386,-9.354,-0.005,0.011,-0.006
191618,-0.668,-1.377,-9.342,-0.004,0.011,-0.006
191721,-0.673,-1.381,-9.342,-0.004,0.012,-0.006
191824,-0.67,-1.389,-9.34,-0.004,0.011,-0.006
191927,-0.673,-1.379,-9.333,-0.005,0.011,-0.006
192030,-0.666,-1.384,-9.337,-0.005,0.011,-0.006
192133,-0.666,-1.379,-9.352,-0.005,0.011,-0.005
192236,-0.67,-1.379,-9.359,-0.005,0.012,-0.006
192339,-0.673,-1.381,-9.347,-0.005,0.011,-0.006
192442,-0.67,-1.374,-9.342,-0.004,0.011,-0.005
192545,-0.673,-1.381,-9.345,-0.005,0.011,-0.006
192648,-0.675,-1.374,-9.335,-0.004,0.011,-0.006
192751,-0.663,-1.381,-9.347,-0.004,0.011,-0.005
192854,-0.673,-1.384,-9.359,-0.005,0.012,-0.006
192957,-0.678,-1.379,-9.347,-0.005,0.011,-0.006
193060,-0.675,-1.379,-9.34,-0.005,0.012,-0.006
193163,-0.663,-1.381,-9.357,-0.004,0.012,-0.006
193266,-0.673,-1.379,-9.359,-0.005,0.011,-0.006
193369,-0.67,-1.386,-9.366,-0.005,0.012,-0.006
193472,-0.678,-1.381,-9.361,-0.005,0.011,-0.006
193575,-0.67,-1.381,-9.34,-0.004,0.011,-0.006
193678,-0.668,-1.372,-9.361,-0.005,0.011,-0.006
193781,-0.663,-1.374,-9.347,-0.005,0.012,-0.006
193884,-0.678,-1.384,-9.34,-0.004,0.011,-0.006
193987,-0.673,-1.381,-9.357,-0.004,0.012,-0.006
194090,-0.67,-1.381,-9.364,-0.005,0.011,-0.006
194193,-0.666,-1.381,-9.342,-0.005,0.012,-0.006
194296,-0.668,-1.389,-9.342,-0.005,0.011,-0.006
194399,-0.678,-1.381,-9.335,-0.004,0.011,-0.006
194502,-0.666,-1.391,-9.345,-0.005,0.011,-0.006
194605,-0.666,-1.377,-9.337,-0.004,0.012,-0.006
194708,-0.668,-1.381,-9.335,-0.005,0.011,-0.006
194811,-0.673,-1.384,-9.357,-0.005,0.012,-0.006
194914,-0.67,-1.384,-9.354,-0.005,0.012,-0.006
195017,-0.656,-1.374,-9.342,-0.005,0.011,-0.006
195120,-0.668,-1.377,-9.345,-0.005,0.011,-0.006
195223,-0.673,-1.369,-9.337,-0.005,0.012,-0.006
195326,-0.668,-1.386,-9.357,-0.005,0.011,-0.006
195429,-0.661,-1.386,-9.337,-0.005,0.012,-0.006
195532,-0.666,-1.374,-9.366,-0.005,0.011,-0.006
195635,-0.668,-1.384,-9.349,-0.005,0.011,-0.006
195738,-0.668,-1.379,-9.354,-0.005,0.011,-0.006
195841,-0.668,-1.372,-9.34,-0.005,0.011,-0.006
195944,-0.67,-1.391,-9.359,-0.004,0.011,-0.006
196047,-0.678,-1.379,-9.342,-0.005,0.012,-0.006
196150,-0.668,-1.374,-9.335,-0.005,0.011,-0.006
196253,-0.678,-1.391,-9.34,-0.005,0.012,-0.006
196356,-0.666,-1.369,-9.328,-0.004,0.012,-0.005
196459,-0.67,-1.386,-9.333,-0.005,0.012,-0.006
196562,-0.678,-1.377,-9.357,-0.005,0.011,-0.006
196665,-0.666,-1.372,-9.34,-0.005,0.012,-0.006
196768,-0.663,-1.377,-9.345,-0.005,0.011,-0.006
196871,-0.673,-1.367,-9.333,-0.004,0.012,-0.006
196974,-0.675,-1.384,-9.345,-0.005,0.012,-0.006
197077,-0.678,-1.389,-9.345,-0.005,0.011,-0.006
197180,-0.668,-1.384,-9.345,-0.005,0.012,-0.005
197283,-0.67,-1.377,-9.345,-0.005,0.012,-0.006
197386,-0.666,-1.389,-9.345,-0.004,0.012,-0.006
197489,-0.67,-1.372,-9.352,-0.004,0.011,-0.006
197592,-0.67,-1.379,-9.357,-0.005,0.012,-0.006
197695,-0.67,-1.377,-9.342,-0.005,0.012,-0.005
197798,-0.67,-1.374,-9.337,-0.005,0.012,-0.006
197901,-0.658,-1.386,-9.345,-0.005,0.012,-0.006
198004,-0.663,-1.381,-9.345,-0.004,0.011,-0.006
198107,-0.678,-1.379,-9.34,-0.005,0.012,-0.006
198210,-0.668,-1.386,-9.345,-0.004,0.012,-0.006
198313,-0.67,-1.372,-9.347,-0.004,0.011,-0.006
198416,-0.663,-1.367,-9.345,-0.005,0.012,-0.006
198519,-0.668,-1.377,-9.354,-0.005,0.012,-0.005
198622,-0.67,-1.369,-9.349,-0.005,0.011,-0.006
198725,-0.68,-1.374,-9.345,-0.005,0.011,-0.006
198828,-0.673,-1.377,-9.354,-0.005,0.011,-0.005
198931,-0.666,-1.386,-9.335,-0.005,0.011,-0.006
199034,-0.675,-1.386,-9.337,-0.005,0.011,-0.006
199137,-0.663,-1.381,-9.347,-0.005,0.012,-0.006
199240,-0.668,-1.377,-9.345,-0.004,0.011,-0.006
199343,-0.67,-1.369,-9.328,-0.004,0.011,-0.006
199446,-0.67,-1.386,-9.325,-0.004,0.011,-0.006
199549,-0.67,-1.389,-9.342,-0.005,0.011,-0.006
199652,-0.675,-1.379,-9.352,-0.005,0.012,-0.006
199755,-0.675,-1.372,-9.342,-0.005,0.011,-0.006
199858,-0.668,-1.386,-9.352,-0.005,0.012,-0.006
199961,-0.675,-1.384,-9.349,-0.005,0.012,-0.006
200064,-0.673,-1.379,-9.33,-0.005,0.011,-0.006
200167,-0.67,-1.381,-9.342,-0.005,0.011,-0.006
200270,-0.673,-1.369,-9.34,-0.005,0.011,-0.006
200373,-0.67,-1.377,-9.352,-0.005,0.012,-0.006
200476,-0.675,-1.379,-9.357,-0.005,0.012,-0.006
200579,-0.675,-1.379,-9.335,-0.005,0.011,-0.006
200682,-0.668,-1.389,-9.342,-0.005,0.012,-0.006
200785,-0.68,-1.379,-9.342,-0.005,0.012,-0.005
200888,-0.673,-1.386,-9.354,-0.004,0.011,-0.006
200991,-0.678,-1.384,-9.345,-0.004,0.011,-0.007
201094,-0.666,-1.377,-9.349,-0.005,0.012,-0.005
201197,-0.666,-1.379,-9.347,-0.004,0.011,-0.006
201300,-0.666,-1.377,-9.342,-0.004,0.011,-0.006
201403,-0.668,-1.379,-9.352,-0.005,0.012,-0.006
201506,-0.67,-1.379,-9.357,-0.005,0.011,-0.006
201609,-0.663,-1.374,-9.347,-0.005,0.011,-0.005
201712,-0.666,-1.377,-9.352,-0.004,0.011,-0.006
201815,-0.675,-1.386,-9.354,-0.005,0.012,-0.006
201918,-0.67,-1.379,-9.354,-0.005,0.012,-0.006
202021,-0.673,-1.386,-9.347,-0.005,0.012,-0.006
202124,-0.67,-1.384,-9.345,-0.005,0.011,-0.005
202227,-0.661,-1.369,-9.345,-0.005,0.012,-0.006
202330,-0.678,-1.381,-9.335,-0.005,0.012,-0.006
202433,-0.668,-1.381,-9.347,-0.005,0.011,-0.006
202536,-0.663,-1.372,-9.352,-0.005,0.011,-0.006
202639,-0.673,-1.384,-9.361,-0.005,0.011,-0.006
202742,-0.668,-1.384,-9.359,-0.005,0.011,-0.006
202845,-0.675,-1.379,-9.337,-0.004,0.011,-0.006
202948,-0.682,-1.393,-9.345,-0.005,0.011,-0.006
203051,-0.67,-1.372,-9.347,-0.005,0.011,-0.006
203154,-0.666,-1.381,-9.333,-0.005,0.011,-0.006
203257,-0.67,-1.384,-9.333,-0.004,0.012,-0.006
203360,-0.661,-1.372,-9.349,-0.005,0.012,-0.006
203463,-0.666,-1.386,-9.34,-0.004,0.012,-0.006
203566,-0.663,-1.367,-9.345,-0.004,0.011,-0.006
203669,-0.675,-1.377,-9.342,-0.005,0.012,-0.006
203772,-0.67,-1.379,-9.349,-0.005,0.011,-0.006
203875,-0.668,-1.379,-9.352,-0.005,0.012,-0.005
203978,-0.67,-1.384,-9.361,-0.005,0.011,-0.006
204081,-0.663,-1.384,-9.345,-0.004,0.011,-0.007
204184,-0.666,-1.369,-9.359,-0.005,0.012,-0.006
204287,-0.673,-1.379,-9.345,-0.005,0.011,-0.006
204390,-0.666,-1.381,-9.335,-0.005,0.012,-0.006
204493,-0.666,-1.384,-9.34,-0.005,0.011,-0.006
204596,-0.661,-1.391,-9.335,-0.004,0.012,-0.006
204699,-0.668,-1.374,-9.347,-0.005,0.012,-0.005
204802,-0.673,-1.374,-9.349,-0.004,0.011,-0.006
204905,-0.673,-1.384,-9.342,-0.005,0.012,-0.006
205008,-0.678,-1.391,-9.342,-0.005,0.012,-0.005
205111,-0.673,-1.379,-9.347,-0.005,0.012,-0.006
205214,-0.668,-1.379,-9.354,-0.005,0.011,-0.006
205317,-0.661,-1.377,-9.349,-0.004,0.012,-0.006
205420,-0.666,-1.379,-9.347,-0.004,0.011,-0.006
205523,-0.663,-1.379,-9.337,-0.004,0.012,-0.006
205626,-0.668,-1.381,-9.337,-0.005,0.011,-0.006
205729,-0.666,-1.386,-9.342,-0.004,0.011,-0.006
205832,-0.668,-1.379,-9.34,-0.005,0.012,-0.005
205935,-0.668,-1.379,-9.352,-0.004,0.011,-0.006
206038,-0.666,-1.386,-9.354,-0.005,0.012,-0.006
206141,-0.663,-1.374,-9.345,-0.005,0.011,-0.005
206244,-0.661,-1.374,-9.347,-0.005,0.012,-0.006
206347,-0.673,-1.384,-9.342,-0.005,0.012,-0.006
206450,-0.673,-1.365,-9.354,-0.005,0.012,-0.006
206553,-0.67,-1.372,-9.342,-0.005,0.012,-0.006
206656,-0.668,-1.377,-9.337,-0.005,0.011,-0.005
206759,-0.668,-1.379,-9.34,-0.005,0.011,-0.006
206862,-0.67,-1.381,-9.354,-0.005,0.012,-0.006
206965,-0.663,-1.374,-9.352,-0.005,0.012,-0.006
207068,-0.661,-1.377,-9.333,-0.005,0.011,-0.006
207171,-0.666,-1.384,-9.349,-0.005,0.011,-0.006
207274,-0.663,-1.374,-9.34,-0.005,0.011,-0.006
207377,-0.675,-1.386,-9.342,-0.005,0.012,-0.005
207480,-0.675,-1.386,-9.352,-0.004,0.012,-0.005
207583,-0.67,-1.381,-9.337,-0.005,0.011,-0.005
207686,-0.663,-1.379,-9.359,-0.005,0.011,-0.006
207789,-0.678,-1.374,-9.347,-0.005,0.012,-0.006
207892,-0.668,-1.381,-9.352,-0.005,0.012,-0.006
207995,-0.668,-1.386,-9.352,-0.005,0.012,-0.006
208098,-0.666,-1.377,-9.33,-0.005,0.011,-0.006
208201,-0.682,-1.386,-9.337,-0.004,0.011,-0.006
208304,-0.678,-1.379,-9.345,-0.005,0.012,-0.006
208407,-0.666,-1.369,-9.352,-0.005,0.012,-0.006
208510,-0.661,-1.391,-9.34,-0.005,0.012,-0.006
208613,-0.668,-1.384,-9.345,-0.005,0.012,-0.006
208716,-0.663,-1.379,-9.357,-0.005,0.012,-0.006
208819,-0.682,-1.374,-9.337,-0.004,0.011,-0.006
208922,-0.663,-1.369,-9.349,-0.004,0.011,-0.006
209025,-0.668,-1.377,-9.345,-0.004,0.011,-0.006
209128,-0.668,-1.372,-9.349,-0.005,0.012,-0.006
209231,-0.673,-1.369,-9.347,-0.005,0.011,-0.006
209334,-0.668,-1.377,-9.345,-0.005,0.011,-0.006
209437,-0.678,-1.386,-9.357,-0.005,0.012,-0.006
209540,-0.673,-1.377,-9.345,-0.005,0.012,-0.006
209643,-0.67,-1.372,-9.335,-0.004,0.012,-0.006
209746,-0.673,-1.372,-9.357,-0.004,0.011,-0.006
209849,-0.673,-1.372,-9.352,-0.005,0.011,-0.006
209952,-0.67,-1.381,-9.335,-0.005,0.012,-0.006
210055,-0.668,-1.384,-9.337,-0.005,0.012,-0.006
210158,-0.666,-1.379,-9.347,-0.005,0.012,-0.006
210261,-0.673,-1.372,-9.347,-0.004,0.011,-0.006
210364,-0.67,-1.379,-9.349,-0.005,0.011,-0.005
210467,-0.673,-1.386,-9.349,-0.005,0.012,-0.005
210570,-0.673,-1.374,-9.352,-0.004,0.012,-0.006
210673,-0.67,-1.369,-9.345,-0.005,0.012,-0.006
210776,-0.668,-1.386,-9.359,-0.005,0.011,-0.006
210879,-0.666,-1.384,-9.34,-0.004,0.011,-0.006
210982,-0.668,-1.379,-9.345,-0.005,0.011,-0.006
211085,-0.682,-1.705,-9.306,0.261,-0.005,-0.016
211188,-0.682,-1.702,-9.304,0.007,0.01,-0.006
211291,-0.685,-1.697,-9.311,-0.008,0.012,-0.005
211394,-0.682,-1.683,-9.299,-0.005,0.012,-0.006
211497,-0.682,-1.681,-9.299,-0.005,0.011,-0.006
211600,-0.685,-1.695,-9.285,-0.004,0.011,-0.006
211703,-0.694,-1.69,-9.282,-0.005,0.012,-0.006
211806,-0.687,-1.686,-9.287,-0.005,0.012,-0.006
211909,-0.687,-1.69,-9.28,-0.005,0.011,-0.006
212012,-0.692,-1.686,-9.294,-0.004,0.012,-0.006
212115,-0.69,-1.707,-9.292,-0.005,0.012,-0.006
212218,-0.682,-1.681,-9.282,-0.005,0.012,-0.006
212321,-0.69,-1.681,-9.299,-0.005,0.012,-0.006
212424,-0.694,-1.686,-9.311,-0.004,0.011,-0.006
212527,-0.682,-1.683,-9.297,-0.004,0.011,-0.006
212630,-0.685,-1.69,-9.292,-0.005,0.011,-0.006
212733,-0.685,-1.69,-9.292,-0.004,0.011,-0.006
212836,-0.685,-1.683,-9.292,-0.004,0.011,-0.006
212939,-0.675,-1.695,-9.301,-0.004,0.011,-0.006
213042,-0.68,-1.69,-9.29,-0.005,0.011,-0.006
213145,-0.68,-1.686,-9.301,-0.005,0.011,-0.006
213248,-0.68,-1.7,-9.294,-0.005,0.012,-0.006
213351,-0.682,-1.683,-9.294,-0.005,0.011,-0.006
213454,-0.682,-1.693,-9.299,-0.004,0.012,-0.006
213557,-0.687,-1.693,-9.294,-0.005,0.012,-0.006
213660,-0.682,-1.69,-9.299,-0.005,0.011,-0.006
213763,-0.685,-1.688,-9.27,-0.004,0.011,-0.006
213866,-0.687,-1.702,-9.301,-0.005,0.011,-0.006
213969,-0.68,-1.688,-9.292,-0.004,0.012,-0.005
214072,-0.692,-1.69,-9.294,-0.005,0.011,-0.006
214175,-0.678,-1.686,-9.299,-0.005,0.011,-0.006
214278,-0.685,-1.683,-9.299,-0.005,0.011,-0.006
214381,-0.685,-1.695,-9.297,-0.005,0.011,-0.006
214484,-0.685,-1.693,-9.297,-0.005,0.011,-0.006
214587,-0.68,-1.688,-9.292,-0.004,0.011,-0.006
214690,-0.685,-1.69,-9.297,-0.004,0.012,-0.006
214793,-0.692,-1.688,-9.294,-0.005,0.011,-0.006
214896,-0.682,-1.681,-9.304,-0.005,0.011,-0.006
214999,-0.694,-1.697,-9.304,-0.005,0.012,-0.006
215102,-0.694,-1.69,-9.306,-0.005,0.011,-0.006
215205,-0.69,-1.678,-9.29,-0.005,0.012,-0.006
215308,-0.682,-1.686,-9.292,-0.005,0.012,-0.006
215411,-0.687,-1.686,-9.285,-0.004,0.012,-0.005
215514,-0.687,-1.69,-9.292,-0.005,0.011,-0.006
215617,-0.687,-1.688,-9.292,-0.004,0.011,-0.006
215720,-0.68,-1.681,-9.306,-0.004,0.011,-0.006
215823,-0.692,-1.688,-9.306,-0.005,0.012,-0.006
215926,-0.687,-1.7,-9.294,-0.005,0.011,-0.006
216029,-0.69,-1.686,-9.297,-0.005,0.012,-0.006
216132,-0.687,-1.686,-9.294,-0.005,0.012,-0.006
216235,-0.682,-1.681,-9.287,-0.004,0.012,-0.006
216338,-0.68,-1.695,-9.292,-0.005,0.011,-0.006
216441,-0.678,-1.688,-9.29,-0.005,0.012,-0.006
216544,-0.687,-1.688,-9.285,-0.005,0.011,-0.006
216647,-0.682,-1.695,-9.309,-0.004,0.011,-0.006
216750,-0.685,-1.695,-9.297,-0.005,0.011,-0.006
216853,-0.692,-1.683,-9.299,-0.004,0.011,-0.006
216956,-0.68,-1.683,-9.299,-0.004,0.012,-0.006
217059,-0.682,-1.7,-9.278,-0.005,0.011,-0.006
217162,-0.68,-1.688,-9.304,-0.005,0.012,-0.006
217265,-0.685,-1.697,-9.292,-0.004,0.011,-0.006
217368,-0.69,-1.681,-9.301,-0.005,0.012,-0.005
217471,-0.687,-1.693,-9.297,-0.004,0.011,-0.006
217574,-0.687,-1.69,-9.304,-0.005,0.011,-0.006
217677,-0.682,-1.681,-9.301,-0.005,0.011,-0.005
217780,-0.685,-1.702,-9.297,-0.005,0.012,-0.006
217883,-0.685,-1.688,-9.292,-0.005,0.011,-0.006
217986,-0.678,-1.683,-9.287,-0.005,0.012,-0.006
218089,-0.685,-1.695,-9.299,-0.005,0.011,-0.005
218192,-0.68,-1.688,-9.301,-0.005,0.011,-0.006
218295,-0.682,-1.688,-9.294,-0.004,0.012,-0.006
218398,-0.687,-1.7,-9.292,-0.005,0.011,-0.006
218501,-0.682,-1.693,-9.287,-0.005,0.011,-0.006
218604,-0.68,-1.693,-9.287,-0.005,0.011,-0.005
218707,-0.673,-1.69,-9.285,-0.005,0.011,-0.006
218810,-0.682,-1.69,-9.304,-0.004,0.011,-0.006
218913,-0.67,-1.693,-9.297,-0.005,0.012,-0.006
219016,-0.685,-1.688,-9.297,-0.005,0.012,-0.006
219119,-0.687,-1.688,-9.297,-0.005,0.012,-0.006
219222,-0.699,-1.69,-9.304,-0.005,0.012,-0.006
219325,-0.68,-1.683,-9.297,-0.005,0.012,-0.006
219428,-0.675,-1.688,-9.287,-0.005,0.011,-0.006
219531,-0.687,-1.7,-9.297,-0.005,0.012,-0.006
219634,-0.694,-1.686,-9.287,-0.004,0.011,-0.006
219737,-0.682,-1.688,-9.299,-0.004,0.011,-0.006
219840,-0.682,-1.681,-9.301,-0.005,0.011,-0.006
219943,-0.687,-1.688,-9.309,-0.005,0.011,-0.006
220046,-0.687,-1.693,-9.29,-0.005,0.011,-0.006
220149,-0.694,-1.686,-9.311,-0.005,0.011,-0.006
220252,-0.687,-1.686,-9.29,-0.004,0.011,-0.006
220355,-0.678,-1.69,-9.292,-0.005,0.011,-0.006
220458,-0.69,-1.688,-9.306,-0.005,0.011,-0.006
220561,-0.68,-1.681,-9.309,-0.005,0.012,-0.006
220664,-0.687,-1.688,-9.29,-0.004,0.011,-0.006
220767,-0.69,-1.686,-9.285,-0.004,0.012,-0.006
220870,-0.675,-1.702,-9.292,-0.005,0.011,-0.006
220973,-0.687,-1.683,-9.304,-0.004,0.011,-0.006
221076,-0.68,-1.693,-9.292,-0.005,0.012,-0.006
221179,-0.692,-1.69,-9.287,-0.005,0.011,-0.006
221282,-0.687,-1.686,-9.306,-0.005,0.011,-0.006
221385,-0.678,-1.695,-9.29,-0.005,0.011,-0.006
221488,-0.685,-1.688,-9.29,-0.005,0.012,-0.006
221591,-0.687,-1.683,-9.299,-0.005,0.011,-0.006
221694,-0.682,-1.695,-9.304,-0.005,0.011,-0.006
221797,-0.68,-1.688,-9.282,-0.005,0.011,-0.006
221900,-0.694,-1.686,-9.299,-0.005,0.011,-0.006
222003,-0.687,-1.686,-9.29,-0.005,0.011,-0.006
222106,-0.692,-1.695,-9.29,-0.005,0.012,-0.006
222209,-0.69,-1.695,-9.287,-0.005,0.011,-0.006
222312,-0.687,-1.686,-9.285,-0.005,0.011,-0.006
222415,-0.685,-1.697,-9.299,-0.005,0.011,-0.005
222518,-0.685,-1.693,-9.275,-0.005,0.011,-0.005
222621,-0.692,-1.683,-9.292,-0.005,0.011,-0.006
222724,-0.692,-1.688,-9.287,-0.005,0.012,-0.006
222827,-0.682,-1.69,-9.306,-0.005,0.012,-0.006
222930,-0.68,-1.686,-9.278,-0.004,0.011,-0.006
223033,-0.685,-1.683,-9.294,-0.005,0.011,-0.006
223136,-0.68,-1.69,-9.297,-0.004,0.011,-0.006
223239,-0.685,-1.69,-9.28,-0.005,0.011,-0.006
223342,-0.687,-1.697,-9.282,-0.005,0.011,-0.006
223445,-0.68,-1.69,-9.292,-0.004,0.011,-0.006
223548,-0.69,-1.681,-9.28,-0.005,0.011,-0.006
223651,-0.687,-1.688,-9.282,-0.005,0.011,-0.006
223754,-0.692,-1.688,-9.29,-0.005,0.011,-0.005
223857,-0.694,-1.688,-9.292,-0.005,0.011,-0.006
223960,-0.692,-1.693,-9.29,-0.005,0.011,-0.006
224063,-0.675,-1.678,-9.29,-0.005,0.011,-0.006
224166,-0.668,-1.688,-9.294,-0.005,0.011,-0.006
224269,-0.678,-1.688,-9.294,-0.005,0.012,-0.006
224372,-0.687,-1.693,-9.285,-0.004,0.011,-0.006
224475,-0.675,-1.695,-9.29,-0.005,0.012,-0.006
224578,-0.685,-1.688,-9.294,-0.005,0.011,-0.006
224681,-0.682,-1.681,-9.297,-0.005,0.011,-0.006
224784,-0.687,-1.688,-9.299,-0.005,0.012,-0.006
224887,-0.685,-1.697,-9.282,-0.005,0.011,-0.006
224990,-0.685,-1.697,-9.297,-0.005,0.011,-0.006
225093,-0.68,-1.688,-9.287,-0.005,0.011,-0.006
225196,-0.685,-1.688,-9.292,-0.005,0.011,-0.006
225299,-0.678,-1.69,-9.292,-0.005,0.011,-0.006
225402,-0.69,-1.688,-9.299,-0.004,0.011,-0.006
225505,-0.682,-1.681,-9.294,-0.004,0.011,-0.006
225608,-0.685,-1.695,-9.301,-0.004,0.011,-0.006
225711,-0.685,-1.69,-9.292,-0.005,0.011,-0.006
225814,-0.687,-1.688,-9.285,-0.005,0.011,-0.006
225917,-0.687,-1.7,-9.299,-0.004,0.012,-0.006
226020,-0.69,-1.69,-9.304,-0.005,0.011,-0.006
226123,-0.69,-1.688,-9.292,-0.005,0.011,-0.006
226226,-0.685,-1.697,-9.28,-0.004,0.011,-0.006
226329,-0.682,-1.693,-9.28,-0.005,0.011,-0.006
226432,-0.687,-1.686,-9.287,-0.005,0.012,-0.005
226535,-0.682,-1.688,-9.301,-0.004,0.011,-0.005
226638,-0.69,-1.686,-9.299,-0.004,0.011,-0.006
226741,-0.692,-1.697,-9.292,-0.005,0.011,-0.006
226844,-0.675,-1.686,-9.304,-0.005,0.011,-0.006
226947,-0.685,-1.688,-9.297,-0.005,0.011,-0.006
227050,-0.692,-1.688,-9.297,-0.005,0.011,-0.006
227153,-0.69,-1.69,-9.282,-0.005,0.011,-0.006
227256,-0.682,-1.69,-9.301,-0.005,0.012,-0.006
227359,-0.685,-1.702,-9.287,-0.005,0.011,-0.006
227462,-0.692,-1.69,-9.306,-0.004,0.011,-0.006
227565,-0.68,-1.686,-9.275,-0.004,0.012,-0.006
227668,-0.687,-1.686,-9.282,-0.005,0.011,-0.006
227771,-0.68,-1.69,-9.297,-0.005,0.011,-0.006
227874,-0.682,-1.686,-9.309,-0.005,0.012,-0.006
227977,-0.69,-1.686,-9.285,-0.005,0.011,-0.005
228080,-0.678,-1.674,-9.282,-0.005,0.011,-0.006
228183,-0.687,-1.683,-9.299,-0.005,0.011,-0.006
228286,-0.69,-1.683,-9.287,-0.004,0.012,-0.006
228389,-0.685,-1.683,-9.282,-0.004,0.011,-0.006
228492,-0.687,-1.688,-9.292,-0.004,0.011,-0.005
228595,-0.687,-1.681,-9.301,-0.005,0.012,-0.006
228698,-0.69,-1.697,-9.287,-0.005,0.011,-0.006
228801,-0.685,-1.7,-9.292,-0.005,0.012,-0.006
228904,-0.675,-1.683,-9.287,-0.005,0.012,-0.006
229007,-0.687,-1.7,-9.297,-0.005,0.011,-0.006
229110,-0.692,-1.683,-9.299,-0.004,0.012,-0.006
229213,-0.675,-1.688,-9.292,-0.005,0.011,-0.006
229316,-0.69,-1.69,-9.304,-0.005,0.012,-0.006
229419,-0.685,-1.676,-9.292,-0.005,0.011,-0.006
229522,-0.692,-1.697,-9.299,-0.004,0.011,-0.006
229625,-0.697,-1.683,-9.299,-0.005,0.012,-0.006
229728,-0.692,-1.678,-9.294,-0.004,0.012,-0.006
229831,-0.694,-1.69,-9.297,-0.005,0.011,-0.006
229934,-0.692,-1.688,-9.301,-0.005,0.012,-0.006
230037,-0.685,-1.695,-9.294,-0.005,0.012,-0.006
230140,-0.678,-1.69,-9.294,-0.004,0.012,-0.006
230243,-0.682,-1.678,-9.29,-0.004,0.011,-0.006
230346,-0.678,-1.686,-9.28,-0.005,0.011,-0.006
230449,-0.682,-1.705,-9.273,-0.005,0.012,-0.006
230552,-0.673,-1.695,-9.301,-0.005,0.011,-0.006
230655,-0.685,-1.697,-9.304,-0.005,0.012,-0.006
230758,-0.685,-1.688,-9.287,-0.005,0.011,-0.006
230861,-0.682,-1.686,-9.292,-0.005,0.012,-0.006
230964,-0.687,-1.69,-9.309,-0.005,0.011,-0.006
231067,-0.68,-1.688,-9.287,-0.005,0.012,-0.006
231170,-0.692,-1.688,-9.29,-0.004,0.011,-0.006
231273,-0.687,-1.7,-9.306,-0.005,0.012,-0.006
231376,-0.682,-1.678,-9.304,-0.005,0.012,-0.006
231479,-0.682,-1.686,-9.294,-0.005,0.011,-0.006
231582,-0.68,-1.695,-9.28,-0.004,0.011,-0.006
231685,-0.692,-1.683,-9.292,-0.004,0.011,-0.006
231788,-0.685,-1.69,-9.287,-0.005,0.011,-0.006
231891,-0.685,-1.693,-9.297,-0.005,0.011,-0.006
231994,-0.682,-1.69,-9.297,-0.005,0.012,-0.006
232097,-0.692,-1.693,-9.306,-0.005,0.012,-0.006
232200,-0.692,-1.683,-9.304,-0.004,0.011,-0.006
232303,-0.69,-1.686,-9.285,-0.004,0.011,-0.006
232406,-0.687,-1.693,-9.301,-0.005,0.012,-0.005
232509,-0.69,-1.681,-9.294,-0.005,0.012,-0.006
232612,-0.682,-1.695,-9.301,-0.004,0.012,-0.006
232715,-0.685,-1.695,-9.301,-0.005,0.011,-0.006
232818,-0.682,-1.686,-9.297,-0.005,0.011,-0.006
232921,-0.685,-1.69,-9.287,-0.005,0.012,-0.006
233024,-0.682,-1.693,-9.29,-0.005,0.011,-0.006
233127,-0.68,-1.693,-9.282,-0.005,0.012,-0.006
233230,-0.69,-1.697,-9.285,-0.005,0.011,-0.006
233333,-0.685,-1.681,-9.301,-0.005,0.011,-0.006
233436,-0.69,-1.697,-9.304,-0.004,0.012,-0.006
233539,-0.682,-1.688,-9.304,-0.005,0.012,-0.006
233642,-0.69,-1.688,-9.313,-0.005,0.011,-0.006
233745,-0.687,-1.695,-9.29,-0.004,0.012,-0.006
233848,-0.678,-1.686,-9.294,-0.005,0.011,-0.005
233951,-0.682,-1.681,-9.301,-0.005,0.012,-0.006
234054,-0.687,-1.688,-9.297,-0.005,0.012,-0.006
234157,-0.687,-1.686,-9.294,-0.005,0.012,-0.006
234260,-0.685,-1.681,-9.299,-0.005,0.011,-0.006
234363,-0.682,-1.686,-9.299,-0.005,0.012,-0.006
234466,-0.69,-1.69,-9.309,-0.005,0.012,-0.006
234569,-0.685,-1.693,-9.294,-0.005,0.011,-0.006
234672,-0.68,-1.69,-9.299,-0.004,0.011,-0.006
234775,-0.682,-1.688,-9.287,-0.004,0.011,-0.006
234878,-0.68,-1.688,-9.285,-0.005,0.011,-0.006
234981,-0.687,-1.678,-9.292,-0.005,0.011,-0.006
235084,-0.682,-1.688,-9.299,-0.005,0.011,-0.006
235187,-0.69,-1.688,-9.285,-0.005,0.011,-0.006
235290,-0.692,-1.693,-9.304,-0.004,0.012,-0.006
235393,-0.69,-1.69,-9.287,-0.005,0.011,-0.006
235496,-0.69,-1.683,-9.294,-0.005,0.012,-0.006
235599,-0.682,-1.686,-9.299,-0.005,0.012,-0.006
235702,-0.68,-1.686,-9.301,-0.005,0.012,-0.006
235805,-0.699,-1.693,-9.282,-0.004,0.012,-0.006
235908,-0.682,-1.697,-9.297,-0.005,0.012,-0.006
236011,-0.69,-1.688,-9.309,-0.005,0.011,-0.006
236114,-0.67,-1.69,-9.294,-0.005,0.012,-0.006
236217,-0.685,-1.688,-9.29,-0.005,0.012,-0.006
236320,-0.68,-1.693,-9.294,-0.005,0.011,-0.006
236423,-0.687,-1.686,-9.297,-0.005,0.011,-0.006
236526,-0.68,-1.7,-9.29,-0.005,0.012,-0.006
236629,-0.685,-1.686,-9.301,-0.005,0.011,-0.006
236732,-0.678,-1.683,-9.299,-0.005,0.011,-0.006
236835,-0.678,-1.686,-9.301,-0.005,0.012,-0.006
236938,-0.685,-1.69,-9.29,-0.005,0.012,-0.005
237041,-0.682,-1.681,-9.287,-0.005,0.012,-0.005
237144,-0.685,-1.695,-9.304,-0.005,0.012,-0.006
237247,-0.685,-1.681,-9.285,-0.005,0.011,-0.006
237350,-0.694,-1.693,-9.299,-0.005,0.011,-0.006
237453,-0.685,-1.693,-9.29,-0.004,0.011,-0.006
237556,-0.68,-1.678,-9.287,-0.005,0.011,-0.006
237659,-0.687,-1.702,-9.304,-0.004,0.011,-0.006
237762,-0.682,-1.69,-9.299,-0.005,0.011,-0.006
237865,-0.68,-1.686,-9.292,-0.005,0.011,-0.006
237968,-0.682,-1.693,-9.304,-0.004,0.012,-0.006
238071,-0.692,-1.686,-9.294,-0.005,0.012,-0.006
238174,-0.682,-1.693,-9.287,-0.005,0.012,-0.006
238277,-0.685,-1.695,-9.301,-0.004,0.011,-0.006
238380,-0.685,-1.688,-9.285,-0.005,0.011,-0.006
238483,-0.685,-1.688,-9.297,-0.005,0.012,-0.005
238586,-0.678,-1.69,-9.29,-0.005,0.011,-0.006
238689,-0.68,-1.681,-9.299,-0.005,0.011,-0.006
238792,-0.682,-1.695,-9.301,-0.005,0.012,-0.006
238895,-0.682,-1.688,-9.287,-0.004,0.011,-0.006
238998,-0.673,-1.686,-9.287,-0.005,0.011,-0.006
239101,-0.682,-1.69,-9.299,-0.005,0.011,-0.006
239204,-0.68,-1.688,-9.294,-0.004,0.012,-0.006
239307,-0.678,-1.697,-9.29,-0.005,0.012,-0.006
239410,-0.69,-1.697,-9.297,-0.005,0.011,-0.006
239513,-0.692,-1.678,-9.297,-0.005,0.011,-0.006
239616,-0.685,-1.693,-9.285,-0.004,0.011,-0.006
239719,-0.685,-1.688,-9.297,-0.005,0.012,-0.005
239822,-0.692,-1.678,-9.294,-0.005,0.011,-0.006
239925,-0.68,-1.693,-9.304,-0.004,0.012,-0.006
240028,-0.68,-1.688,-9.309,-0.005,0.011,-0.006
240131,-0.685,-1.688,-9.292,-0.005,0.012,-0.006
240234,-0.687,-1.688,-9.301,-0.005,0.011,-0.006
240337,-0.685,-1.688,-9.285,-0.005,0.011,-0.006
240440,-0.678,-1.697,-9.285,-0.004,0.011,-0.006
240543,-0.675,-1.693,-9.285,-0.005,0.011,-0.006
240646,-0.678,-1.683,-9.294,-0.004,0.011,-0.006
240749,-0.682,-1.695,-9.294,-0.005,0.011,-0.006
240852,-0.682,-1.69,-9.278,-0.005,0.011,-0.006
240955,-0.687,-1.695,-9.297,-0.005,0.011,-0.006
241058,-0.694,-1.832,-9.261,0.359,-0.012,-0.019
241161,-0.702,-2.035,-9.23,0.033,0.009,-0.007
241264,-0.702,-2.033,-9.225,-0.002,0.011,-0.006
241367,-0.704,-2.045,-9.227,-0.004,0.011,-0.006
241470,-0.713,-2.025,-9.225,-0.005,0.011,-0.006
241573,-0.699,-2.025,-9.208,-0.004,0.012,-0.006
241676,-0.702,-2.037,-9.213,-0.005,0.011,-0.006
241779,-0.706,-2.025,-9.234,-0.005,0.012,-0.006
241882,-0.694,-2.035,-9.222,-0.005,0.012,-0.006
241985,-0.699,-2.028,-9.225,-0.005,0.011,-0.006
242088,-0.697,-2.023,-9.225,-0.005,0.011,-0.006
242191,-0.702,-2.045,-9.218,-0.004,0.011,-0.006
242294,-0.706,-2.035,-9.225,-0.005,0.012,-0.006
242397,-0.697,-2.025,-9.242,-0.005,0.011,-0.006
242500,-0.702,-2.03,-9.225,-0.005,0.012,-0.006
242603,-0.699,-2.023,-9.222,-0.005,0.012,-0.006
242706,-0.706,-2.033,-9.225,-0.004,0.012,-0.006
242809,-0.706,-2.028,-9.23,-0.005,0.012,-0.006
242912,-0.702,-2.028,-9.222,-0.005,0.012,-0.006
243015,-0.702,-2.025,-9.22,-0.005,0.012,-0.006
243118,-0.709,-2.037,-9.225,-0.004,0.011,-0.006
243221,-0.697,-2.03,-9.22,-0.005,0.012,-0.006
243324,-0.694,-2.03,-9.242,-0.005,0.011,-0.006
243427,-0.699,-2.03,-9.23,-0.005,0.011,-0.006
243530,-0.713,-2.033,-9.222,-0.005,0.012,-0.006
243633,-0.704,-2.03,-9.22,-0.005,0.012,-0.006
243736,-0.702,-2.033,-9.222,-0.005,0.012,-0.006
243839,-0.706,-2.03,-9.237,-0.005,0.012,-0.006
243942,-0.704,-2.045,-9.22,-0.004,0.012,-0.006
244045,-0.699,-2.028,-9.22,-0.005,0.012,-0.006
244148,-0.711,-2.052,-9.234,-0.005,0.012,-0.006
244251,-0.692,-2.042,-9.234,-0.005,0.011,-0.006
244354,-0.694,-2.03,-9.21,-0.005,0.012,-0.006
244457,-0.702,-2.035,-9.222,-0.005,0.012,-0.006
244560,-0.709,-2.033,-9.232,-0.005,0.012,-0.006
244663,-0.702,-2.028,-9.218,-0.004,0.011,-0.006
244766,-0.709,-2.04,-9.234,-0.005,0.011,-0.006
244869,-0.702,-2.03,-9.225,-0.005,0.012,-0.006
244972,-0.706,-2.033,-9.22,-0.004,0.012,-0.006
245075,-0.699,-2.04,-9.22,-0.005,0.011,-0.006
245178,-0.699,-2.035,-9.237,-0.004,0.012,-0.006
245281,-0.706,-2.04,-9.234,-0.005,0.012,-0.006
245384,-0.694,-2.033,-9.222,-0.005,0.012,-0.006
245487,-0.699,-2.025,-9.225,-0.005,0.012,-0.006
245590,-0.697,-2.04,-9.225,-0.005,0.011,-0.006
245693,-0.702,-2.028,-9.22,-0.005,0.012,-0.006
245796,-0.694,-2.042,-9.22,-0.005,0.012,-0.006
245899,-0.699,-2.021,-9.227,-0.004,0.012,-0.006
246002,-0.697,-2.033,-9.225,-0.005,0.012,-0.006
246105,-0.699,-2.042,-9.215,-0.005,0.012,-0.006
246208,-0.709,-2.028,-9.222,-0.005,0.012,-0.006
246311,-0.709,-2.025,-9.218,-0.004,0.011,-0.006
246414,-0.702,-2.04,-9.218,-0.005,0.011,-0.006
246517,-0.711,-2.033,-9.22,-0.005,0.011,-0.005
246620,-0.702,-2.035,-9.222,-0.005,0.012,-0.006
246723,-0.704,-2.035,-9.225,-0.005,0.012,-0.006
246826,-0.706,-2.025,-9.237,-0.004,0.011,-0.006
246929,-0.709,-2.033,-9.23,-0.004,0.011,-0.006
247032,-0.692,-2.025,-9.22,-0.005,0.011,-0.005
247135,-0.694,-2.021,-9.22,-0.005,0.012,-0.006
247238,-0.713,-2.047,-9.227,-0.004,0.012,-0.006
247341,-0.699,-2.03,-9.222,-0.005,0.011,-0.006
247444,-0.711,-2.028,-9.222,-0.005,0.011,-0.006
247547,-0.709,-2.025,-9.222,-0.005,0.012,-0.006
247650,-0.704,-2.035,-9.232,-0.005,0.012,-0.006
247753,-0.702,-2.04,-9.218,-0.005,0.012,-0.006
247856,-0.702,-2.028,-9.22,-0.005,0.012,-0.006
247959,-0.706,-2.028,-9.222,-0.004,0.011,-0.006
248062,-0.704,-2.03,-9.237,-0.004,0.011,-0.006
248165,-0.704,-2.028,-9.227,-0.005,0.011,-0.005
248268,-0.704,-2.035,-9.234,-0.005,0.011,-0.006
248371,-0.697,-2.03,-9.22,-0.005,0.012,-0.006
248474,-0.699,-2.033,-9.22,-0.004,0.012,-0.006
248577,-0.699,-2.028,-9.22,-0.004,0.011,-0.006
248680,-0.702,-2.033,-9.21,-0.005,0.011,-0.006
248783,-0.709,-2.028,-9.22,-0.004,0.012,-0.005
248886,-0.704,-2.035,-9.239,-0.005,0.011,-0.006
248989,-0.711,-2.04,-9.222,-0.005,0.012,-0.006
249092,-0.702,-2.021,-9.239,-0.004,0.012,-0.006
249195,-0.702,-2.03,-9.22,-0.005,0.011,-0.006
249298,-0.704,-2.025,-9.22,-0.005,0.011,-0.006
249401,-0.697,-2.028,-9.23,-0.005,0.012,-0.006
249504,-0.704,-2.04,-9.227,-0.004,0.011,-0.006
249607,-0.699,-2.021,-9.23,-0.005,0.011,-0.006
249710,-0.706,-2.04,-9.225,-0.005,0.011,-0.006
249813,-0.699,-2.033,-9.218,-0.005,0.012,-0.006
249916,-0.706,-2.035,-9.23,-0.005,0.011,-0.006
250019,-0.706,-2.042,-9.227,-0.004,0.011,-0.006
250122,-0.713,-2.03,-9.227,-0.004,0.011,-0.006
250225,-0.702,-2.035,-9.23,-0.005,0.011,-0.006
250328,-0.702,-2.03,-9.239,-0.005,0.011,-0.006
250431,-0.694,-2.033,-9.23,-0.005,0.011,-0.005
250534,-0.706,-2.033,-9.227,-0.005,0.012,-0.006
250637,-0.694,-2.035,-9.218,-0.005,0.011,-0.006
250740,-0.706,-2.03,-9.215,-0.005,0.011,-0.006
250843,-0.713,-2.033,-9.215,-0.004,0.011,-0.006
250946,-0.697,-2.028,-9.225,-0.005,0.011,-0.006
251049,-0.704,-2.033,-9.234,-0.005,0.011,-0.006
251152,-0.709,-2.04,-9.232,-0.005,0.011,-0.005
251255,-0.697,-2.025,-9.227,-0.005,0.012,-0.006
251358,-0.699,-2.03,-9.23,-0.004,0.011,-0.006
251461,-0.702,-2.035,-9.22,-0.005,0.011,-0.006
251564,-0.713,-2.028,-9.213,-0.005,0.012,-0.006
251667,-0.704,-2.03,-9.218,-0.004,0.011,-0.006
251770,-0.702,-2.035,-9.234,-0.004,0.011,-0.005
251873,-0.704,-2.03,-9.222,-0.004,0.011,-0.005
251976,-0.704,-2.035,-9.232,-0.005,0.011,-0.006
252079,-0.704,-2.021,-9.227,-0.005,0.012,-0.006
252182,-0.704,-2.028,-9.225,-0.004,0.012,-0.006
252285,-0.704,-2.04,-9.21,-0.005,0.012,-0.006
252388,-0.699,-2.025,-9.232,-0.005,0.012,-0.005
252491,-0.704,-2.028,-9.234,-0.005,0.011,-0.005
252594,-0.704,-2.037,-9.225,-0.004,0.012,-0.006
252697,-0.702,-2.023,-9.218,-0.004,0.011,-0.006
252800,-0.718,-2.035,-9.239,-0.005,0.012,-0.006
252903,-0.706,-2.037,-9.234,-0.005,0.011,-0.006
253006,-0.702,-2.04,-9.213,-0.005,0.012,-0.006
253109,-0.704,-2.028,-9.21,-0.004,0.011,-0.006
253212,-0.709,-2.03,-9.225,-0.005,0.011,-0.006
253315,-0.694,-2.016,-9.215,-0.005,0.011,-0.006
253418,-0.697,-2.03,-9.225,-0.004,0.011,-0.006
253521,-0.709,-2.03,-9.218,-0.005,0.012,-0.006
253624,-0.711,-2.035,-9.227,-0.005,0.011,-0.006
253727,-0.697,-2.023,-9.21,-0.005,0.011,-0.006
253830,-0.709,-2.025,-9.222,-0.005,0.012,-0.006
253933,-0.704,-2.035,-9.225,-0.004,0.012,-0.006
254036,-0.702,-2.037,-9.227,-0.005,0.012,-0.006
254139,-0.699,-2.037,-9.234,-0.005,0.012,-0.006
254242,-0.702,-2.033,-9.213,-0.005,0.011,-0.006
254345,-0.704,-2.021,-9.237,-0.005,0.012,-0.006
254448,-0.704,-2.033,-9.222,-0.005,0.012,-0.006
254551,-0.709,-2.035,-9.227,-0.005,0.012,-0.006
254654,-0.697,-2.025,-9.232,-0.005,0.011,-0.005
254757,-0.702,-2.025,-9.225,-0.005,0.012,-0.006
254860,-0.711,-2.033,-9.22,-0.005,0.012,-0.006
254963,-0.699,-2.025,-9.234,-0.005,0.011,-0.006
255066,-0.704,-2.042,-9.23,-0.005,0.011,-0.006
255169,-0.697,-2.033,-9.215,-0.005,0.012,-0.006
255272,-0.704,-2.033,-9.222,-0.004,0.011,-0.006
255375,-0.709,-2.037,-9.218,-0.005,0.011,-0.006
255478,-0.699,-2.025,-9.237,-0.005,0.012,-0.006
255581,-0.706,-2.033,-9.22,-0.005,0.012,-0.006
255684,-0.704,-2.035,-9.225,-0.005,0.011,-0.006
255787,-0.704,-2.025,-9.23,-0.005,0.011,-0.005
255890,-0.694,-2.03,-9.225,-0.004,0.011,-0.006
255993,-0.709,-2.033,-9.225,-0.005,0.011,-0.006
256096,-0.706,-2.033,-9.23,-0.005,0.011,-0.006
256199,-0.699,-2.033,-9.218,-0.005,0.011,-0.005
256302,-0.697,-2.03,-9.225,-0.005,0.011,-0.005
256405,-0.702,-2.035,-9.225,-0.005,0.011,-0.006
256508,-0.702,-2.04,-9.215,-0.005,0.011,-0.006
256611,-0.697,-2.028,-9.208,-0.005,0.012,-0.006
256714,-0.699,-2.03,-9.218,-0.004,0.012,-0.006
256817,-0.694,-2.037,-9.232,-0.005,0.012,-0.006
256920,-0.706,-2.023,-9.215,-0.005,0.011,-0.005
257023,-0.704,-2.042,-9.225,-0.005,0.012,-0.006
257126,-0.711,-2.033,-9.215,-0.005,0.011,-0.006
257229,-0.697,-2.028,-9.225,-0.005,0.011,-0.006
257332,-0.711,-2.035,-9.232,-0.005,0.011,-0.006
257435,-0.711,-2.025,-9.237,-0.005,0.012,-0.006
257538,-0.699,-2.03,-9.222,-0.005,0.012,-0.006
257641,-0.706,-2.035,-9.225,-0.005,0.011,-0.006
257744,-0.704,-2.021,-9.239,-0.005,0.012,-0.006
257847,-0.694,-2.037,-9.213,-0.004,0.011,-0.006
257950,-0.699,-2.033,-9.225,-0.005,0.011,-0.006
258053,-0.706,-2.025,-9.22,-0.005,0.011,-0.006
258156,-0.706,-2.028,-9.244,-0.004,0.011,-0.006
258259,-0.709,-2.033,-9.227,-0.005,0.012,-0.006
258362,-0.706,-2.03,-9.234,-0.005,0.011,-0.006
258465,-0.702,-2.03,-9.232,-0.005,0.012,-0.006
258568,-0.702,-2.025,-9.218,-0.005,0.012,-0.006
258671,-0.704,-2.025,-9.225,-0.005,0.011,-0.006
258774,-0.709,-2.035,-9.22,-0.005,0.012,-0.006
258877,-0.704,-2.033,-9.22,-0.005,0.011,-0.006
258980,-0.713,-2.035,-9.239,-0.004,0.012,-0.006
259083,-0.711,-2.021,-9.218,-0.005,0.011,-0.006
259186,-0.704,-2.028,-9.23,-0.005,0.011,-0.006
259289,-0.699,-2.04,-9.222,-0.005,0.011,-0.006
259392,-0.692,-2.033,-9.227,-0.005,0.012,-0.006
259495,-0.694,-2.035,-9.234,-0.004,0.012,-0.006
259598,-0.702,-2.035,-9.225,-0.005,0.012,-0.005
259701,-0.697,-2.023,-9.234,-0.005,0.011,-0.006
259804,-0.702,-2.035,-9.22,-0.005,0.012,-0.006
259907,-0.709,-2.025,-9.232,-0.005,0.012,-0.006
260010,-0.704,-2.035,-9.222,-0.005,0.011,-0.006
260113,-0.697,-2.047,-9.21,-0.005,0.011,-0.006
260216,-0.706,-2.033,-9.222,-0.005,0.011,-0.006
260319,-0.713,-2.037,-9.244,-0.005,0.011,-0.006
260422,-0.699,-2.047,-9.208,-0.005,0.011,-0.006
260525,-0.713,-2.03,-9.225,-0.005,0.011,-0.006
260628,-0.702,-2.028,-9.22,-0.005,0.011,-0.006
260731,-0.702,-2.033,-9.234,-0.005,0.011,-0.006
260834,-0.702,-2.035,-9.23,-0.005,0.012,-0.006
260937,-0.702,-2.037,-9.215,-0.004,0.012,-0.006
261040,-0.699,-2.037,-9.215,-0.005,0.011,-0.006
261143,-0.704,-2.035,-9.218,-0.005,0.012,-0.006
261246,-0.702,-2.037,-9.23,-0.005,0.011,-0.006
261349,-0.699,-2.028,-9.225,-0.005,0.011,-0.006
261452,-0.709,-2.033,-9.23,-0.004,0.011,-0.006
261555,-0.694,-2.035,-9.218,-0.004,0.012,-0.005
261658,-0.702,-2.025,-9.222,-0.005,0.012,-0.006
261761,-0.699,-2.028,-9.232,-0.004,0.011,-0.006
261864,-0.697,-2.028,-9.222,-0.005,0.012,-0.006
261967,-0.702,-2.028,-9.239,-0.005,0.011,-0.006
262070,-0.706,-2.035,-9.218,-0.005,0.011,-0.006
262173,-0.706,-2.03,-9.239,-0.005,0.011,-0.006
262276,-0.704,-2.03,-9.244,-0.005,0.011,-0.006
262379,-0.704,-2.023,-9.22,-0.005,0.011,-0.006
262482,-0.711,-2.028,-9.218,-0.005,0.011,-0.005
