time (ms),acceleration x,acceleration y,acceleration z,gyro x,gyro y,gyro z
656,-1.123,-1.243,-9.376,-0.009,0.009,-0.023
759,-1.118,-1.24,-9.376,-0.009,0.009,-0.023
862,-1.125,-1.238,-9.376,-0.009,0.01,-0.023
965,-1.13,-1.243,-9.371,-0.009,0.01,-0.024
1068,-1.12,-1.24,-9.366,-0.009,0.009,-0.023
1171,-1.123,-1.245,-9.361,-0.009,0.009,-0.023
1274,-1.125,-1.245,-9.383,-0.009,0.009,-0.023
1377,-1.123,-1.235,-9.359,-0.009,0.009,-0.023
1480,-1.12,-1.231,-9.366,-0.009,0.009,-0.023
1583,-1.123,-1.245,-9.349,-0.009,0.01,-0.023
1686,-1.12,-1.235,-9.38,-0.009,0.009,-0.023
1789,-1.13,-1.231,-9.376,-0.009,0.009,-0.023
1892,-1.13,-1.238,-9.357,-0.009,0.009,-0.023
1995,-1.128,-1.243,-9.366,-0.009,0.009,-0.023
2098,-1.128,-1.262,-9.376,-0.009,0.009,-0.023
2201,-1.128,-1.243,-9.369,-0.01,0.009,-0.023
2304,-1.12,-1.228,-9.361,-0.009,0.009,-0.023
2407,-1.12,-1.243,-9.361,-0.009,0.009,-0.023
2510,-1.12,-1.245,-9.354,-0.009,0.009,-0.023
2613,-1.13,-1.257,-9.378,-0.009,0.009,-0.023
2716,-1.113,-1.238,-9.361,-0.008,0.009,-0.023
2819,-1.123,-1.24,-9.366,-0.009,0.009,-0.023
2922,-1.12,-1.245,-9.369,-0.009,0.009,-0.023
3025,-1.125,-1.25,-9.371,-0.009,0.009,-0.023
3128,-1.12,-1.247,-9.354,-0.009,0.009,-0.023
3231,-1.116,-1.233,-9.369,-0.009,0.009,-0.023
3334,-1.12,-1.235,-9.357,-0.009,0.009,-0.023
3437,-1.12,-1.231,-9.39,-0.009,0.009,-0.023
3540,-1.118,-1.235,-9.373,-0.009,0.009,-0.023
3643,-1.116,-1.245,-9.359,-0.008,0.009,-0.023
3746,-1.118,-1.235,-9.366,-0.009,0.009,-0.023
3849,-1.118,-1.238,-9.373,-0.009,0.009,-0.023
3952,-1.123,-1.245,-9.376,-0.009,0.009,-0.023
4055,-1.116,-1.235,-9.376,-0.009,0.009,-0.024
4158,-1.123,-1.243,-9.361,-0.01,0.009,-0.023
4261,-1.118,-1.238,-9.378,-0.009,0.009,-0.023
4364,-1.116,-1.245,-9.39,-0.009,0.009,-0.023
4467,-1.12,-1.231,-9.371,-0.009,0.009,-0.023
4570,-1.12,-1.238,-9.364,-0.009,0.009,-0.023
4673,-1.13,-1.238,-9.371,-0.009,0.009,-0.023
4776,-1.118,-1.235,-9.373,-0.009,0.009,-0.023
4879,-1.116,-1.24,-9.371,-0.009,0.009,-0.023
4982,-1.132,-1.238,-9.376,-0.009,0.009,-0.023
5085,-1.128,-1.235,-9.373,-0.009,0.009,-0.023
5188,-1.12,-1.247,-9.361,-0.009,0.009,-0.023
5291,-1.135,-1.233,-9.369,-0.009,0.009,-0.023
5394,-1.137,-1.231,-9.376,-0.009,0.009,-0.023
5497,-1.13,-1.243,-9.376,-0.009,0.009,-0.023
5600,-1.128,-1.243,-9.378,-0.009,0.009,-0.023
5703,-1.116,-1.238,-9.371,-0.009,0.009,-0.023
5806,-1.128,-1.243,-9.373,-0.009,0.009,-0.023
5909,-1.116,-1.24,-9.383,-0.009,0.009,-0.023
6012,-1.123,-1.245,-9.371,-0.009,0.009,-0.023
6115,-1.12,-1.228,-9.376,-0.009,0.009,-0.023
6218,-1.13,-1.245,-9.366,-0.009,0.01,-0.023
6321,-1.132,-1.24,-9.364,-0.009,0.009,-0.023
6424,-1.128,-1.235,-9.371,-0.009,0.009,-0.023
6527,-1.13,-1.235,-9.369,-0.009,0.009,-0.023
6630,-1.128,-1.243,-9.373,-0.009,0.009,-0.023
6733,-1.132,-1.24,-9.366,-0.009,0.009,-0.023
6836,-1.128,-1.231,-9.378,-0.009,0.009,-0.023
6939,-1.125,-1.243,-9.373,-0.009,0.009,-0.023
7042,-1.12,-1.238,-9.371,-0.01,0.009,-0.024
7145,-1.113,-1.233,-9.366,-0.009,0.009,-0.023
7248,-1.125,-1.24,-9.373,-0.009,0.009,-0.023
7351,-1.123,-1.238,-9.359,-0.009,0.009,-0.023
7454,-1.125,-1.25,-9.366,-0.009,0.009,-0.023
7557,-1.123,-1.238,-9.371,-0.009,0.009,-0.023
7660,-1.125,-1.235,-9.369,-0.009,0.009,-0.023
7763,-1.13,-1.231,-9.352,-0.009,0.009,-0.023
7866,-1.125,-1.235,-9.38,-0.009,0.009,-0.023
7969,-1.123,-1.243,-9.376,-0.009,0.009,-0.023
8072,-1.125,-1.235,-9.373,-0.009,0.009,-0.023
8175,-1.116,-1.245,-9.376,-0.009,0.009,-0.023
8278,-1.123,-1.243,-9.364,-0.009,0.01,-0.023
8381,-1.135,-1.238,-9.371,-0.009,0.009,-0.023
8484,-1.125,-1.235,-9.371,-0.009,0.009,-0.023
8587,-1.132,-1.231,-9.371,-0.009,0.009,-0.023
8690,-1.125,-1.226,-9.357,-0.009,0.009,-0.023
8793,-1.13,-1.247,-9.373,-0.009,0.009,-0.023
8896,-1.13,-1.226,-9.369,-0.009,0.009,-0.023
8999,-1.13,-1.243,-9.373,-0.009,0.009,-0.023
9102,-1.132,-1.233,-9.388,-0.009,0.009,-0.023
9205,-1.12,-1.231,-9.371,-0.009,0.009,-0.023
9308,-1.106,-1.235,-9.383,-0.009,0.009,-0.023
9411,-1.12,-1.243,-9.369,-0.009,0.009,-0.023
9514,-1.123,-1.24,-9.369,-0.009,0.009,-0.023
9617,-1.116,-1.238,-9.373,-0.009,0.009,-0.023
9720,-1.123,-1.243,-9.361,-0.009,0.009,-0.023
9823,-1.123,-1.24,-9.376,-0.009,0.009,-0.023
9926,-1.128,-1.235,-9.366,-0.009,0.009,-0.023
10029,-1.12,-1.231,-9.369,-0.009,0.009,-0.023
10132,-1.123,-1.231,-9.371,-0.009,0.009,-0.023
10235,-1.116,-1.243,-9.357,-0.009,0.009,-0.023
10338,-1.116,-1.24,-9.364,-0.009,0.009,-0.023
10441,-1.128,-1.245,-9.388,-0.009,0.009,-0.023
10544,-1.12,-1.243,-9.364,-0.009,0.009,-0.023
10647,-1.132,-1.235,-9.376,-0.009,0.009,-0.023
10750,-1.12,-1.238,-9.366,-0.009,0.009,-0.023
10853,-1.13,-1.238,-9.371,-0.009,0.01,-0.023
10956,-1.13,-1.238,-9.376,-0.009,0.009,-0.023
11059,-1.12,-1.245,-9.364,-0.009,0.009,-0.023
11162,-1.125,-1.235,-9.376,-0.009,0.009,-0.023
11265,-1.111,-1.238,-9.385,-0.009,0.009,-0.023
11368,-1.125,-1.243,-9.366,-0.009,0.009,-0.023
11471,-1.128,-1.238,-9.359,-0.009,0.008,-0.023
11574,-1.123,-1.233,-9.38,-0.009,0.009,-0.023
11677,-1.118,-1.238,-9.371,-0.009,0.009,-0.023
11780,-1.123,-1.245,-9.369,-0.009,0.009,-0.023
11883,-1.128,-1.245,-9.378,-0.009,0.009,-0.023
11986,-1.125,-1.24,-9.373,-0.009,0.009,-0.023
12089,-1.125,-1.235,-9.361,-0.009,0.009,-0.023
12192,-1.132,-1.238,-9.364,-0.009,0.009,-0.023
12295,-1.125,-1.233,-9.364,-0.009,0.009,-0.023
12398,-1.123,-1.243,-9.352,-0.009,0.009,-0.023
12501,-1.125,-1.235,-9.373,-0.009,0.009,-0.023
12604,-1.13,-1.235,-9.38,-0.009,0.009,-0.023
12707,-1.123,-1.24,-9.371,-0.009,0.009,-0.023
12810,-1.137,-1.24,-9.371,-0.009,0.009,-0.023
12913,-1.128,-1.245,-9.369,-0.009,0.009,-0.023
13016,-1.128,-1.245,-9.361,-0.009,0.009,-0.023
13119,-1.118,-1.238,-9.378,-0.009,0.009,-0.023
13222,-1.128,-1.238,-9.376,-0.009,0.009,-0.023
13325,-1.123,-1.24,-9.376,-0.009,0.009,-0.023
13428,-1.12,-1.235,-9.373,-0.009,0.009,-0.024
13531,-1.132,-1.228,-9.371,-0.009,0.009,-0.023
13634,-1.12,-1.247,-9.378,-0.009,0.009,-0.023
13737,-1.12,-1.247,-9.357,-0.009,0.009,-0.023
13840,-1.128,-1.235,-9.383,-0.009,0.009,-0.023
13943,-1.128,-1.223,-9.364,-0.009,0.009,-0.023
14046,-1.13,-1.226,-9.364,-0.009,0.009,-0.023
14149,-1.13,-1.233,-9.369,-0.009,0.009,-0.023
14252,-1.113,-1.233,-9.364,-0.009,0.009,-0.023
14355,-1.125,-1.243,-9.371,-0.009,0.009,-0.023
14458,-1.123,-1.235,-9.383,-0.009,0.009,-0.023
14561,-1.132,-1.228,-9.38,-0.009,0.009,-0.023
14664,-1.116,-1.226,-9.373,-0.009,0.009,-0.023
14767,-1.123,-1.228,-9.378,-0.009,0.009,-0.023
14870,-1.135,-1.238,-9.369,-0.009,0.009,-0.023
14973,-1.13,-1.233,-9.38,-0.009,0.009,-0.023
15076,-1.125,-1.24,-9.38,-0.009,0.009,-0.023
15179,-1.132,-1.245,-9.361,-0.009,0.009,-0.023
15282,-1.128,-1.24,-9.388,-0.009,0.009,-0.023
15385,-1.111,-1.233,-9.383,-0.009,0.009,-0.023
15488,-1.128,-1.235,-9.364,-0.009,0.009,-0.023
15591,-1.118,-1.24,-9.371,-0.009,0.009,-0.023
15694,-1.135,-1.243,-9.378,-0.009,0.009,-0.023
15797,-1.13,-1.245,-9.38,-0.009,0.009,-0.023
15900,-1.116,-1.231,-9.373,-0.009,0.009,-0.023
16003,-1.132,-1.233,-9.364,-0.009,0.009,-0.023
16106,-1.118,-1.245,-9.361,-0.009,0.009,-0.023
16209,-1.128,-1.235,-9.371,-0.009,0.009,-0.023
16312,-1.13,-1.233,-9.388,-0.009,0.009,-0.023
16415,-1.118,-1.238,-9.38,-0.009,0.009,-0.023
16518,-1.128,-1.245,-9.373,-0.009,0.009,-0.023
16621,-1.125,-1.24,-9.378,-0.009,0.009,-0.023
16724,-1.137,-1.24,-9.383,-0.009,0.009,-0.023
16827,-1.128,-1.24,-9.39,-0.009,0.009,-0.023
16930,-1.123,-1.235,-9.376,-0.009,0.009,-0.023
17033,-1.125,-1.233,-9.376,-0.009,0.009,-0.023
17136,-1.12,-1.24,-9.373,-0.009,0.009,-0.023
17239,-1.125,-1.24,-9.369,-0.009,0.009,-0.023
17342,-1.13,-1.243,-9.369,-0.009,0.009,-0.024
17445,-1.13,-1.228,-9.371,-0.009,0.009,-0.023
17548,-1.13,-1.235,-9.38,-0.009,0.009,-0.023
17651,-1.118,-1.233,-9.366,-0.009,0.009,-0.023
17754,-1.123,-1.233,-9.371,-0.009,0.009,-0.023
17857,-1.123,-1.243,-9.38,-0.009,0.009,-0.023
17960,-1.118,-1.243,-9.361,-0.009,0.009,-0.023
18063,-1.125,-1.245,-9.369,-0.009,0.009,-0.023
18166,-1.135,-1.245,-9.371,-0.009,0.009,-0.023
18269,-1.128,-1.235,-9.366,-0.009,0.009,-0.023
18372,-1.125,-1.238,-9.376,-0.009,0.009,-0.023
18475,-1.123,-1.245,-9.371,-0.009,0.009,-0.023
18578,-1.123,-1.243,-9.383,-0.009,0.009,-0.023
18681,-1.123,-1.228,-9.376,-0.009,0.01,-0.023
18784,-1.128,-1.24,-9.383,-0.009,0.01,-0.023
18887,-1.132,-1.233,-9.378,-0.009,0.009,-0.023
18990,-1.118,-1.238,-9.371,-0.009,0.009,-0.023
19093,-1.123,-1.231,-9.376,-0.009,0.009,-0.023
19196,-1.125,-1.238,-9.392,-0.009,0.009,-0.023
19299,-1.12,-1.24,-9.371,-0.009,0.009,-0.023
19402,-1.13,-1.25,-9.371,-0.009,0.009,-0.023
19505,-1.125,-1.233,-9.376,-0.009,0.009,-0.023
19608,-1.123,-1.238,-9.369,-0.009,0.009,-0.023
19711,-1.128,-1.235,-9.369,-0.009,0.009,-0.023
19814,-1.125,-1.238,-9.369,-0.009,0.009,-0.023
19917,-1.128,-1.231,-9.385,-0.009,0.009,-0.023
20020,-1.118,-1.235,-9.383,-0.009,0.009,-0.023
20123,-1.128,-1.243,-9.376,-0.009,0.009,-0.023
20226,-1.132,-1.24,-9.366,-0.009,0.009,-0.023
20329,-1.118,-1.231,-9.364,-0.009,0.009,-0.023
20432,-1.125,-1.238,-9.373,-0.009,0.009,-0.023
20535,-1.132,-1.238,-9.376,-0.009,0.009,-0.023
20638,-1.12,-1.245,-9.378,-0.009,0.009,-0.023
20741,-1.125,-1.235,-9.369,-0.009,0.009,-0.023
20844,-1.12,-1.226,-9.371,-0.009,0.009,-0.023
20947,-1.118,-1.24,-9.366,-0.009,0.009,-0.023
21050,-1.125,-1.396,-9.366,0.324,-0.014,-0.048
21153,-1.137,-1.48,-9.333,0.004,0.008,-0.023
21256,-1.132,-1.465,-9.333,-0.008,0.009,-0.023
21359,-1.135,-1.465,-9.342,-0.009,0.009,-0.023
21462,-1.13,-1.47,-9.337,-0.009,0.009,-0.023
21565,-1.123,-1.482,-9.349,-0.009,0.009,-0.024
21668,-1.137,-1.482,-9.335,-0.009,0.009,-0.023
21771,-1.137,-1.468,-9.34,-0.009,0.009,-0.023
21874,-1.137,-1.47,-9.33,-0.009,0.009,-0.023
21977,-1.13,-1.48,-9.337,-0.009,0.009,-0.023
22080,-1.132,-1.475,-9.33,-0.009,0.009,-0.023
22183,-1.135,-1.477,-9.337,-0.009,0.009,-0.023
22286,-1.14,-1.475,-9.34,-0.009,0.009,-0.023
22389,-1.132,-1.484,-9.342,-0.009,0.009,-0.023
22492,-1.137,-1.475,-9.345,-0.009,0.009,-0.023
22595,-1.13,-1.48,-9.323,-0.009,0.009,-0.023
22698,-1.14,-1.482,-9.321,-0.009,0.009,-0.023
22801,-1.135,-1.48,-9.337,-0.009,0.009,-0.023
22904,-1.13,-1.482,-9.335,-0.009,0.009,-0.023
23007,-1.137,-1.475,-9.337,-0.009,0.009,-0.023
23110,-1.14,-1.475,-9.342,-0.009,0.009,-0.023
23213,-1.137,-1.48,-9.345,-0.009,0.009,-0.023
23316,-1.135,-1.47,-9.342,-0.009,0.009,-0.023
23419,-1.132,-1.475,-9.335,-0.009,0.009,-0.023
23522,-1.135,-1.472,-9.33,-0.009,0.009,-0.023
23625,-1.132,-1.475,-9.328,-0.009,0.009,-0.023
23728,-1.137,-1.477,-9.347,-0.009,0.009,-0.023
23831,-1.147,-1.484,-9.328,-0.009,0.009,-0.023
23934,-1.135,-1.477,-9.34,-0.009,0.009,-0.024
24037,-1.132,-1.468,-9.34,-0.009,0.009,-0.023
24140,-1.128,-1.477,-9.323,-0.009,0.009,-0.023
24243,-1.135,-1.482,-9.333,-0.009,0.009,-0.023
24346,-1.132,-1.48,-9.325,-0.009,0.009,-0.023
24449,-1.132,-1.482,-9.337,-0.009,0.009,-0.023
24552,-1.14,-1.468,-9.359,-0.009,0.009,-0.023
24655,-1.142,-1.465,-9.318,-0.009,0.009,-0.024
24758,-1.14,-1.477,-9.342,-0.009,0.009,-0.023
24861,-1.14,-1.482,-9.347,-0.009,0.009,-0.023
24964,-1.132,-1.475,-9.33,-0.009,0.009,-0.023
25067,-1.137,-1.47,-9.337,-0.01,0.009,-0.023
25170,-1.13,-1.472,-9.349,-0.009,0.009,-0.023
25273,-1.135,-1.482,-9.345,-0.009,0.009,-0.023
25376,-1.135,-1.47,-9.342,-0.009,0.009,-0.023
25479,-1.137,-1.487,-9.328,-0.009,0.009,-0.023
25582,-1.142,-1.48,-9.333,-0.009,0.009,-0.023
25685,-1.144,-1.477,-9.354,-0.009,0.009,-0.023
25788,-1.137,-1.48,-9.333,-0.009,0.009,-0.023
25891,-1.137,-1.482,-9.333,-0.009,0.009,-0.023
25994,-1.132,-1.47,-9.335,-0.009,0.009,-0.023
26097,-1.137,-1.484,-9.34,-0.009,0.009,-0.023
26200,-1.144,-1.47,-9.337,-0.009,0.009,-0.023
26303,-1.142,-1.477,-9.33,-0.009,0.009,-0.023
26406,-1.13,-1.477,-9.323,-0.009,0.009,-0.023
26509,-1.142,-1.475,-9.349,-0.009,0.009,-0.023
26612,-1.142,-1.47,-9.342,-0.009,0.009,-0.023
26715,-1.132,-1.472,-9.337,-0.009,0.009,-0.023
26818,-1.137,-1.477,-9.337,-0.009,0.009,-0.023
26921,-1.13,-1.477,-9.335,-0.009,0.009,-0.023
27024,-1.132,-1.475,-9.34,-0.009,0.009,-0.023
27127,-1.13,-1.468,-9.342,-0.009,0.009,-0.023
27230,-1.137,-1.482,-9.342,-0.009,0.009,-0.023
27333,-1.14,-1.48,-9.337,-0.009,0.009,-0.023
27436,-1.137,-1.47,-9.34,-0.009,0.009,-0.023
27539,-1.137,-1.48,-9.34,-0.009,0.009,-0.023
27642,-1.13,-1.468,-9.342,-0.009,0.009,-0.023
27745,-1.147,-1.482,-9.328,-0.009,0.009,-0.023
27848,-1.14,-1.477,-9.342,-0.009,0.009,-0.023
27951,-1.142,-1.48,-9.316,-0.009,0.009,-0.023
28054,-1.132,-1.48,-9.316,-0.009,0.009,-0.023
28157,-1.144,-1.472,-9.34,-0.009,0.009,-0.023
28260,-1.142,-1.477,-9.342,-0.009,0.009,-0.023
28363,-1.137,-1.48,-9.337,-0.009,0.009,-0.023
28466,-1.142,-1.477,-9.347,-0.009,0.009,-0.022
28569,-1.125,-1.477,-9.333,-0.009,0.009,-0.022
28672,-1.13,-1.492,-9.328,-0.009,0.009,-0.023
28775,-1.14,-1.472,-9.337,-0.009,0.009,-0.023
28878,-1.14,-1.475,-9.337,-0.009,0.009,-0.023
28981,-1.135,-1.472,-9.328,-0.009,0.009,-0.023
29084,-1.144,-1.472,-9.33,-0.009,0.009,-0.023
29187,-1.14,-1.477,-9.354,-0.009,0.009,-0.023
29290,-1.128,-1.475,-9.33,-0.009,0.009,-0.023
29393,-1.132,-1.477,-9.333,-0.009,0.009,-0.023
29496,-1.142,-1.47,-9.347,-0.009,0.009,-0.023
29599,-1.135,-1.482,-9.345,-0.009,0.009,-0.023
29702,-1.13,-1.47,-9.34,-0.009,0.009,-0.023
29805,-1.132,-1.475,-9.34,-0.009,0.009,-0.023
29908,-1.149,-1.48,-9.347,-0.009,0.009,-0.024
30011,-1.132,-1.482,-9.347,-0.009,0.009,-0.023
30114,-1.135,-1.477,-9.333,-0.009,0.009,-0.023
30217,-1.135,-1.48,-9.342,-0.009,0.009,-0.023
30320,-1.135,-1.472,-9.325,-0.009,0.009,-0.023
30423,-1.132,-1.47,-9.325,-0.009,0.009,-0.023
30526,-1.144,-1.477,-9.325,-0.009,0.009,-0.023
30629,-1.137,-1.48,-9.333,-0.009,0.009,-0.023
30732,-1.132,-1.489,-9.335,-0.009,0.009,-0.023
30835,-1.142,-1.477,-9.342,-0.009,0.009,-0.023
30938,-1.137,-1.475,-9.325,-0.009,0.009,-0.023
31041,-1.137,-1.48,-9.323,-0.009,0.009,-0.023
31144,-1.14,-1.48,-9.316,-0.009,0.009,-0.023
31247,-1.137,-1.489,-9.34,-0.009,0.009,-0.023
31350,-1.14,-1.482,-9.328,-0.009,0.009,-0.023
31453,-1.135,-1.475,-9.347,-0.009,0.009,-0.024
31556,-1.14,-1.477,-9.328,-0.009,0.009,-0.023
31659,-1.135,-1.477,-9.325,-0.009,0.009,-0.023
31762,-1.13,-1.484,-9.34,-0.009,0.009,-0.023
31865,-1.13,-1.477,-9.345,-0.009,0.009,-0.023
31968,-1.13,-1.475,-9.345,-0.009,0.009,-0.023
32071,-1.13,-1.472,-9.318,-0.009,0.01,-0.023
32174,-1.123,-1.48,-9.335,-0.009,0.009,-0.023
32277,-1.14,-1.484,-9.34,-0.009,0.009,-0.023
32380,-1.135,-1.477,-9.342,-0.009,0.009,-0.023
32483,-1.135,-1.487,-9.333,-0.009,0.009,-0.023
32586,-1.137,-1.48,-9.33,-0.009,0.009,-0.023
32689,-1.144,-1.48,-9.34,-0.009,0.009,-0.023
32792,-1.135,-1.48,-9.335,-0.009,0.009,-0.023
32895,-1.13,-1.468,-9.33,-0.009,0.009,-0.023
32998,-1.14,-1.48,-9.352,-0.009,0.009,-0.023
33101,-1.137,-1.475,-9.325,-0.009,0.009,-0.023
33204,-1.132,-1.475,-9.325,-0.009,0.009,-0.023
33307,-1.132,-1.475,-9.342,-0.009,0.009,-0.023
33410,-1.142,-1.477,-9.345,-0.009,0.009,-0.023
33513,-1.14,-1.477,-9.335,-0.009,0.009,-0.023
33616,-1.135,-1.477,-9.34,-0.009,0.009,-0.024
33719,-1.13,-1.475,-9.333,-0.009,0.009,-0.023
33822,-1.125,-1.472,-9.347,-0.009,0.009,-0.023
33925,-1.142,-1.482,-9.318,-0.009,0.009,-0.023
34028,-1.125,-1.47,-9.345,-0.009,0.009,-0.023
34131,-1.137,-1.48,-9.337,-0.009,0.009,-0.023
34234,-1.137,-1.475,-9.335,-0.009,0.009,-0.023
34337,-1.135,-1.48,-9.347,-0.009,0.009,-0.023
34440,-1.135,-1.482,-9.337,-0.009,0.008,-0.023
34543,-1.14,-1.48,-9.318,-0.009,0.009,-0.023
34646,-1.128,-1.47,-9.347,-0.009,0.009,-0.023
34749,-1.132,-1.475,-9.337,-0.009,0.009,-0.023
34852,-1.137,-1.482,-9.328,-0.009,0.009,-0.023
34955,-1.135,-1.482,-9.345,-0.009,0.009,-0.024
35058,-1.137,-1.482,-9.325,-0.009,0.009,-0.023
35161,-1.13,-1.48,-9.342,-0.009,0.009,-0.023
35264,-1.137,-1.48,-9.337,-0.009,0.009,-0.023
35367,-1.142,-1.482,-9.342,-0.009,0.009,-0.023
35470,-1.128,-1.465,-9.354,-0.009,0.009,-0.023
35573,-1.137,-1.482,-9.337,-0.009,0.009,-0.023
35676,-1.144,-1.475,-9.34,-0.009,0.009,-0.023
35779,-1.132,-1.48,-9.34,-0.009,0.009,-0.023
35882,-1.137,-1.475,-9.333,-0.009,0.009,-0.023
35985,-1.142,-1.48,-9.333,-0.009,0.009,-0.023
36088,-1.137,-1.48,-9.33,-0.009,0.009,-0.023
36191,-1.13,-1.482,-9.333,-0.009,0.009,-0.023
36294,-1.13,-1.477,-9.345,-0.009,0.01,-0.023
36397,-1.14,-1.48,-9.333,-0.009,0.009,-0.023
36500,-1.135,-1.477,-9.328,-0.009,0.009,-0.023
36603,-1.14,-1.475,-9.328,-0.009,0.009,-0.023
36706,-1.132,-1.472,-9.335,-0.009,0.009,-0.023
36809,-1.132,-1.48,-9.34,-0.009,0.009,-0.023
36912,-1.13,-1.484,-9.33,-0.009,0.009,-0.023
37015,-1.137,-1.477,-9.337,-0.009,0.009,-0.023
37118,-1.137,-1.482,-9.325,-0.009,0.009,-0.023
37221,-1.13,-1.477,-9.347,-0.009,0.009,-0.023
37324,-1.142,-1.48,-9.33,-0.009,0.009,-0.023
37427,-1.132,-1.472,-9.34,-0.009,0.009,-0.023
37530,-1.149,-1.472,-9.33,-0.009,0.009,-0.023
37633,-1.14,-1.475,-9.335,-0.009,0.009,-0.023
37736,-1.14,-1.484,-9.337,-0.009,0.009,-0.023
37839,-1.135,-1.472,-9.318,-0.009,0.009,-0.023
37942,-1.128,-1.482,-9.342,-0.009,0.009,-0.023
38045,-1.13,-1.47,-9.337,-0.009,0.009,-0.023
38148,-1.137,-1.482,-9.311,-0.009,0.009,-0.023
38251,-1.144,-1.468,-9.34,-0.009,0.009,-0.023
38354,-1.137,-1.472,-9.349,-0.009,0.009,-0.023
38457,-1.13,-1.48,-9.342,-0.009,0.009,-0.023
38560,-1.125,-1.482,-9.33,-0.009,0.009,-0.023
38663,-1.142,-1.472,-9.33,-0.009,0.009,-0.023
38766,-1.135,-1.482,-9.316,-0.009,0.009,-0.023
38869,-1.13,-1.47,-9.347,-0.009,0.009,-0.023
38972,-1.137,-1.48,-9.345,-0.009,0.009,-0.023
39075,-1.14,-1.477,-9.335,-0.009,0.009,-0.023
39178,-1.142,-1.484,-9.335,-0.009,0.009,-0.023
39281,-1.132,-1.472,-9.34,-0.008,0.009,-0.023
39384,-1.132,-1.47,-9.34,-0.009,0.009,-0.023
39487,-1.135,-1.48,-9.328,-0.009,0.009,-0.023
39590,-1.144,-1.48,-9.34,-0.009,0.009,-0.023
39693,-1.135,-1.482,-9.333,-0.009,0.009,-0.023
39796,-1.137,-1.482,-9.34,-0.009,0.009,-0.023
39899,-1.14,-1.468,-9.342,-0.009,0.009,-0.023
40002,-1.13,-1.482,-9.325,-0.009,0.01,-0.023
40105,-1.14,-1.492,-9.328,-0.009,0.009,-0.023
40208,-1.132,-1.477,-9.347,-0.009,0.009,-0.023
40311,-1.14,-1.477,-9.333,-0.009,0.009,-0.023
40414,-1.135,-1.475,-9.33,-0.009,0.009,-0.023
40517,-1.132,-1.47,-9.34,-0.009,0.009,-0.023
40620,-1.135,-1.48,-9.342,-0.008,0.009,-0.023
40723,-1.14,-1.468,-9.323,-0.009,0.009,-0.023
40826,-1.132,-1.477,-9.349,-0.009,0.009,-0.023
40929,-1.135,-1.475,-9.337,-0.009,0.009,-0.023
41032,-1.135,-1.482,-9.333,-0.009,0.009,-0.023
41135,-1.135,-1.472,-9.328,-0.009,0.009,-0.023
41238,-1.137,-1.482,-9.349,-0.009,0.009,-0.023
41341,-1.142,-1.484,-9.34,-0.009,0.009,-0.023
41444,-1.128,-1.477,-9.342,-0.009,0.009,-0.023
41547,-1.147,-1.484,-9.33,-0.009,0.009,-0.023
41650,-1.14,-1.472,-9.323,-0.009,0.009,-0.023
41753,-1.137,-1.48,-9.349,-0.009,0.009,-0.023
41856,-1.132,-1.482,-9.33,-0.009,0.009,-0.023
41959,-1.13,-1.472,-9.328,-0.009,0.009,-0.023
42062,-1.135,-1.482,-9.333,-0.009,0.009,-0.023
42165,-1.125,-1.484,-9.337,-0.009,0.009,-0.023
42268,-1.14,-1.477,-9.335,-0.009,0.009,-0.023
42371,-1.142,-1.475,-9.333,-0.009,0.009,-0.023
42474,-1.132,-1.48,-9.335,-0.009,0.009,-0.023
42577,-1.14,-1.496,-9.33,-0.009,0.009,-0.023
42680,-1.142,-1.48,-9.323,-0.009,0.009,-0.023
42783,-1.128,-1.492,-9.33,-0.009,0.009,-0.023
42886,-1.14,-1.475,-9.333,-0.009,0.009,-0.023
42989,-1.142,-1.477,-9.342,-0.009,0.01,-0.023
43092,-1.135,-1.477,-9.325,-0.009,0.009,-0.023
43195,-1.137,-1.48,-9.33,-0.009,0.009,-0.023
43298,-1.135,-1.47,-9.345,-0.009,0.009,-0.023
43401,-1.135,-1.484,-9.337,-0.009,0.009,-0.023
43504,-1.14,-1.477,-9.333,-0.009,0.009,-0.023
43607,-1.144,-1.48,-9.335,-0.009,0.009,-0.023
43710,-1.137,-1.48,-9.34,-0.009,0.009,-0.023
43813,-1.137,-1.482,-9.333,-0.009,0.009,-0.023
43916,-1.13,-1.477,-9.34,-0.009,0.009,-0.023
44019,-1.14,-1.475,-9.328,-0.009,0.009,-0.023
44122,-1.137,-1.496,-9.34,-0.009,0.009,-0.023
44225,-1.137,-1.48,-9.335,-0.009,0.009,-0.023
44328,-1.142,-1.475,-9.335,-0.009,0.009,-0.023
44431,-1.135,-1.484,-9.335,-0.009,0.009,-0.023
44534,-1.147,-1.472,-9.345,-0.009,0.009,-0.023
44637,-1.147,-1.475,-9.345,-0.009,0.009,-0.023
44740,-1.13,-1.487,-9.33,-0.009,0.009,-0.023
44843,-1.142,-1.475,-9.34,-0.009,0.01,-0.023
44946,-1.13,-1.47,-9.345,-0.009,0.009,-0.023
45049,-1.144,-1.47,-9.337,-0.009,0.009,-0.023
45152,-1.142,-1.475,-9.342,-0.009,0.009,-0.023
45255,-1.135,-1.477,-9.328,-0.009,0.009,-0.023
45358,-1.125,-1.472,-9.328,-0.009,0.009,-0.023
45461,-1.135,-1.468,-9.337,-0.009,0.009,-0.023
45564,-1.147,-1.47,-9.325,-0.009,0.009,-0.023
45667,-1.14,-1.48,-9.325,-0.009,0.009,-0.023
45770,-1.142,-1.477,-9.335,-0.009,0.009,-0.023
45873,-1.137,-1.48,-9.337,-0.009,0.009,-0.023
45976,-1.14,-1.48,-9.337,-0.009,0.009,-0.023
46079,-1.137,-1.484,-9.335,-0.009,0.009,-0.023
46182,-1.128,-1.472,-9.328,-0.009,0.009,-0.023
46285,-1.128,-1.475,-9.335,-0.009,0.009,-0.023
46388,-1.132,-1.475,-9.33,-0.009,0.01,-0.023
46491,-1.13,-1.482,-9.34,-0.009,0.009,-0.023
46594,-1.125,-1.475,-9.337,-0.009,0.009,-0.023
46697,-1.132,-1.477,-9.342,-0.009,0.009,-0.023
46800,-1.135,-1.475,-9.33,-0.009,0.009,-0.023
46903,-1.135,-1.484,-9.335,-0.009,0.009,-0.023
47006,-1.137,-1.468,-9.335,-0.009,0.009,-0.023
47109,-1.14,-1.475,-9.352,-0.009,0.009,-0.023
47212,-1.132,-1.475,-9.335,-0.009,0.009,-0.023
47315,-1.132,-1.484,-9.328,-0.009,0.009,-0.023
47418,-1.142,-1.487,-9.337,-0.009,0.009,-0.023
47521,-1.137,-1.482,-9.328,-0.009,0.009,-0.023
47624,-1.13,-1.477,-9.333,-0.009,0.009,-0.023
47727,-1.128,-1.48,-9.34,-0.009,0.009,-0.023
47830,-1.14,-1.477,-9.333,-0.009,0.009,-0.023
47933,-1.14,-1.48,-9.333,-0.009,0.009,-0.023
48036,-1.147,-1.482,-9.352,-0.009,0.009,-0.023
48139,-1.132,-1.48,-9.347,-0.009,0.009,-0.023
48242,-1.142,-1.468,-9.323,-0.009,0.009,-0.023
48345,-1.144,-1.47,-9.337,-0.009,0.009,-0.023
48448,-1.14,-1.472,-9.318,-0.009,0.009,-0.023
48551,-1.147,-1.482,-9.354,-0.009,0.009,-0.023
48654,-1.142,-1.482,-9.34,-0.009,0.01,-0.023
48757,-1.137,-1.477,-9.337,-0.009,0.009,-0.023
48860,-1.135,-1.489,-9.333,-0.009,0.009,-0.023
48963,-1.142,-1.482,-9.349,-0.009,0.009,-0.023
49066,-1.144,-1.475,-9.342,-0.009,0.009,-0.023
49169,-1.14,-1.465,-9.325,-0.009,0.009,-0.023
49272,-1.13,-1.458,-9.333,-0.009,0.009,-0.023
49375,-1.137,-1.484,-9.333,-0.009,0.009,-0.023
49478,-1.132,-1.47,-9.33,-0.009,0.009,-0.023
49581,-1.128,-1.475,-9.337,-0.009,0.009,-0.023
49684,-1.149,-1.463,-9.34,-0.009,0.01,-0.023
49787,-1.137,-1.482,-9.33,-0.009,0.009,-0.023
49890,-1.14,-1.468,-9.337,-0.009,0.009,-0.023
49993,-1.137,-1.482,-9.347,-0.009,0.009,-0.023
50096,-1.14,-1.472,-9.337,-0.009,0.009,-0.023
50199,-1.13,-1.48,-9.333,-0.009,0.009,-0.023
50302,-1.147,-1.475,-9.34,-0.009,0.009,-0.023
50405,-1.144,-1.477,-9.337,-0.009,0.009,-0.023
50508,-1.137,-1.484,-9.33,-0.009,0.009,-0.023
50611,-1.13,-1.477,-9.328,-0.009,0.009,-0.023
50714,-1.13,-1.489,-9.335,-0.009,0.009,-0.023
50817,-1.137,-1.484,-9.34,-0.009,0.009,-0.023
50920,-1.12,-1.468,-9.342,-0.009,0.009,-0.023
51023,-1.132,-1.472,-9.328,-0.009,0.009,-0.023
51126,-1.14,-1.487,-9.321,-0.009,0.009,-0.023
51229,-1.132,-1.475,-9.328,-0.009,0.009,-0.023
51332,-1.132,-1.477,-9.323,-0.009,0.009,-0.023
51435,-1.135,-1.484,-9.337,-0.009,0.009,-0.023
51538,-1.135,-1.48,-9.333,-0.009,0.009,-0.023
51641,-1.13,-1.482,-9.335,-0.009,0.009,-0.023
51744,-1.128,-1.482,-9.342,-0.009,0.009,-0.023
51847,-1.142,-1.484,-9.335,-0.009,0.009,-0.023
51950,-1.13,-1.48,-9.335,-0.009,0.009,-0.023
52053,-1.14,-1.472,-9.34,-0.009,0.009,-0.023
52156,-1.14,-1.477,-9.342,-0.009,0.009,-0.022
52259,-1.147,-1.477,-9.33,-0.009,0.009,-0.023
52362,-1.147,-1.48,-9.316,-0.009,0.009,-0.023
52465,-1.14,-1.47,-9.318,-0.009,0.009,-0.023
52568,-1.14,-1.482,-9.333,-0.009,0.009,-0.023
52671,-1.137,-1.475,-9.342,-0.008,0.009,-0.023
52774,-1.14,-1.472,-9.33,-0.009,0.009,-0.023
52877,-1.137,-1.472,-9.354,-0.009,0.009,-0.023
52980,-1.137,-1.477,-9.323,-0.009,0.009,-0.023
53083,-1.137,-1.472,-9.337,-0.009,0.009,-0.023
53186,-1.137,-1.477,-9.337,-0.009,0.009,-0.023
53289,-1.13,-1.472,-9.323,-0.009,0.009,-0.023
53392,-1.14,-1.475,-9.33,-0.009,0.009,-0.023
53495,-1.135,-1.472,-9.34,-0.009,0.009,-0.023
53598,-1.135,-1.48,-9.328,-0.009,0.009,-0.023
53701,-1.125,-1.48,-9.328,-0.009,0.009,-0.023
53804,-1.135,-1.472,-9.337,-0.009,0.009,-0.023
53907,-1.137,-1.472,-9.33,-0.009,0.01,-0.023
54010,-1.132,-1.475,-9.34,-0.009,0.009,-0.023
54113,-1.132,-1.477,-9.33,-0.009,0.009,-0.023
54216,-1.142,-1.484,-9.333,-0.009,0.009,-0.023
54319,-1.137,-1.482,-9.333,-0.009,0.009,-0.023
54422,-1.128,-1.475,-9.33,-0.009,0.01,-0.023
54525,-1.14,-1.482,-9.345,-0.009,0.009,-0.023
54628,-1.137,-1.475,-9.33,-0.009,0.009,-0.023
54731,-1.14,-1.475,-9.325,-0.009,0.009,-0.023
54834,-1.14,-1.475,-9.333,-0.009,0.009,-0.023
54937,-1.14,-1.48,-9.337,-0.009,0.009,-0.023
55040,-1.132,-1.472,-9.335,-0.009,0.009,-0.023
55143,-1.128,-1.477,-9.323,-0.009,0.009,-0.023
55246,-1.13,-1.48,-9.337,-0.009,0.009,-0.023
55349,-1.137,-1.48,-9.328,-0.009,0.01,-0.022
55452,-1.142,-1.487,-9.335,-0.009,0.009,-0.023
55555,-1.132,-1.48,-9.337,-0.009,0.009,-0.023
55658,-1.135,-1.472,-9.34,-0.009,0.009,-0.023
55761,-1.14,-1.47,-9.337,-0.009,0.009,-0.023
55864,-1.128,-1.489,-9.325,-0.009,0.01,-0.023
55967,-1.132,-1.477,-9.323,-0.009,0.009,-0.023
56070,-1.142,-1.468,-9.335,-0.009,0.009,-0.023
56173,-1.132,-1.482,-9.34,-0.009,0.009,-0.023
56276,-1.135,-1.482,-9.345,-0.009,0.009,-0.023
56379,-1.14,-1.477,-9.318,-0.009,0.009,-0.023
56482,-1.142,-1.475,-9.33,-0.009,0.009,-0.023
56585,-1.135,-1.472,-9.335,-0.009,0.009,-0.023
56688,-1.14,-1.482,-9.34,-0.009,0.009,-0.023
56791,-1.137,-1.477,-9.34,-0.009,0.009,-0.023
56894,-1.13,-1.47,-9.33,-0.009,0.009,-0.023
56997,-1.14,-1.48,-9.342,-0.009,0.009,-0.023
57100,-1.13,-1.48,-9.318,-0.009,0.009,-0.023
57203,-1.135,-1.48,-9.337,-0.009,0.009,-0.023
57306,-1.137,-1.472,-9.337,-0.009,0.009,-0.023
57409,-1.14,-1.482,-9.33,-0.009,0.009,-0.023
57512,-1.142,-1.47,-9.323,-0.009,0.009,-0.023
57615,-1.132,-1.48,-9.333,-0.009,0.009,-0.023
57718,-1.14,-1.482,-9.34,-0.009,0.008,-0.023
57821,-1.14,-1.468,-9.34,-0.009,0.009,-0.023
57924,-1.123,-1.484,-9.321,-0.009,0.01,-0.023
58027,-1.137,-1.472,-9.337,-0.009,0.01,-0.023
58130,-1.137,-1.475,-9.342,-0.009,0.009,-0.023
58233,-1.13,-1.477,-9.328,-0.009,0.009,-0.023
58336,-1.137,-1.487,-9.333,-0.009,0.009,-0.023
58439,-1.132,-1.48,-9.335,-0.009,0.009,-0.023
58542,-1.132,-1.477,-9.325,-0.009,0.009,-0.023
58645,-1.14,-1.472,-9.321,-0.009,0.009,-0.023
58748,-1.132,-1.472,-9.318,-0.009,0.009,-0.023
58851,-1.132,-1.484,-9.333,-0.009,0.009,-0.023
58954,-1.13,-1.472,-9.345,-0.009,0.009,-0.023
59057,-1.13,-1.487,-9.345,-0.009,0.009,-0.023
59160,-1.14,-1.47,-9.333,-0.009,0.009,-0.023
59263,-1.132,-1.48,-9.33,-0.009,0.009,-0.023
59366,-1.142,-1.482,-9.34,-0.009,0.009,-0.023
59469,-1.13,-1.48,-9.34,-0.009,0.009,-0.023
59572,-1.125,-1.475,-9.34,-0.009,0.009,-0.023
59675,-1.137,-1.484,-9.342,-0.009,0.009,-0.023
59778,-1.132,-1.487,-9.328,-0.009,0.009,-0.023
59881,-1.132,-1.484,-9.34,-0.009,0.009,-0.023
59984,-1.147,-1.477,-9.333,-0.009,0.009,-0.023
60087,-1.132,-1.482,-9.321,-0.009,0.009,-0.023
60190,-1.13,-1.47,-9.337,-0.009,0.009,-0.023
60293,-1.142,-1.482,-9.337,-0.009,0.009,-0.023
60396,-1.144,-1.487,-9.321,-0.009,0.009,-0.023
60499,-1.142,-1.48,-9.335,-0.009,0.009,-0.023
60602,-1.132,-1.48,-9.333,-0.009,0.009,-0.023
60705,-1.13,-1.477,-9.321,-0.009,0.009,-0.023
60808,-1.137,-1.48,-9.337,-0.009,0.009,-0.023
60911,-1.144,-1.475,-9.337,-0.009,0.009,-0.023
61014,-1.137,-1.532,-9.311,0.266,-0.01,-0.045
61117,-1.14,-1.714,-9.297,0.02,0.007,-0.025
61220,-1.152,-1.705,-9.306,-0.007,0.01,-0.023
61323,-1.159,-1.714,-9.301,-0.009,0.009,-0.023
61426,-1.142,-1.714,-9.29,-0.009,0.009,-0.023
61529,-1.144,-1.709,-9.297,-0.009,0.009,-0.023
61632,-1.154,-1.7,-9.297,-0.009,0.009,-0.023
61735,-1.152,-1.714,-9.301,-0.009,0.009,-0.023
61838,-1.154,-1.712,-9.285,-0.009,0.009,-0.023
61941,-1.147,-1.707,-9.29,-0.009,0.009,-0.023
62044,-1.149,-1.705,-9.301,-0.009,0.009,-0.023
62147,-1.144,-1.714,-9.309,-0.009,0.009,-0.023
62250,-1.152,-1.724,-9.287,-0.009,0.009,-0.023
62353,-1.144,-1.712,-9.285,-0.009,0.009,-0.023
62456,-1.159,-1.714,-9.301,-0.009,0.009,-0.023
62559,-1.149,-1.712,-9.29,-0.009,0.009,-0.022
62662,-1.154,-1.707,-9.294,-0.009,0.009,-0.023
62765,-1.14,-1.707,-9.294,-0.009,0.009,-0.023
62868,-1.147,-1.707,-9.282,-0.009,0.009,-0.023
62971,-1.149,-1.712,-9.301,-0.009,0.009,-0.023
63074,-1.154,-1.709,-9.28,-0.009,0.009,-0.023
63177,-1.147,-1.709,-9.299,-0.008,0.009,-0.023
63280,-1.144,-1.707,-9.299,-0.009,0.009,-0.023
63383,-1.147,-1.712,-9.309,-0.009,0.009,-0.023
63486,-1.149,-1.709,-9.294,-0.009,0.009,-0.023
63589,-1.147,-1.709,-9.292,-0.009,0.009,-0.023
63692,-1.154,-1.721,-9.297,-0.008,0.009,-0.022
63795,-1.156,-1.721,-9.292,-0.009,0.009,-0.023
63898,-1.152,-1.707,-9.292,-0.009,0.009,-0.022
64001,-1.154,-1.717,-9.299,-0.009,0.009,-0.023
64104,-1.154,-1.705,-9.301,-0.009,0.009,-0.023
64207,-1.149,-1.709,-9.292,-0.009,0.009,-0.023
64310,-1.142,-1.705,-9.287,-0.009,0.009,-0.023
64413,-1.142,-1.714,-9.287,-0.009,0.009,-0.022
64516,-1.142,-1.709,-9.299,-0.009,0.009,-0.023
64619,-1.144,-1.709,-9.299,-0.009,0.009,-0.023
64722,-1.147,-1.705,-9.297,-0.009,0.009,-0.023
64825,-1.14,-1.717,-9.297,-0.009,0.009,-0.023
64928,-1.149,-1.712,-9.301,-0.009,0.009,-0.023
65031,-1.14,-1.705,-9.292,-0.009,0.009,-0.023
65134,-1.147,-1.7,-9.282,-0.009,0.01,-0.023
65237,-1.147,-1.705,-9.29,-0.009,0.009,-0.023
65340,-1.156,-1.717,-9.294,-0.009,0.009,-0.023
65443,-1.149,-1.705,-9.306,-0.009,0.009,-0.023
65546,-1.152,-1.7,-9.294,-0.009,0.009,-0.023
65649,-1.156,-1.707,-9.304,-0.009,0.009,-0.023
65752,-1.147,-1.712,-9.304,-0.009,0.009,-0.023
65855,-1.144,-1.705,-9.292,-0.009,0.009,-0.023
65958,-1.14,-1.709,-9.294,-0.009,0.01,-0.024
66061,-1.144,-1.714,-9.287,-0.009,0.009,-0.023
66164,-1.159,-1.717,-9.282,-0.009,0.009,-0.023
66267,-1.142,-1.709,-9.294,-0.009,0.009,-0.023
66370,-1.147,-1.712,-9.29,-0.009,0.009,-0.023
66473,-1.161,-1.714,-9.29,-0.009,0.009,-0.022
66576,-1.147,-1.707,-9.287,-0.009,0.009,-0.023
66679,-1.152,-1.709,-9.29,-0.009,0.009,-0.023
66782,-1.152,-1.707,-9.299,-0.009,0.009,-0.023
66885,-1.152,-1.697,-9.282,-0.009,0.009,-0.023
66988,-1.154,-1.712,-9.287,-0.009,0.009,-0.023
67091,-1.149,-1.721,-9.292,-0.009,0.009,-0.023
67194,-1.147,-1.714,-9.306,-0.009,0.009,-0.024
67297,-1.142,-1.705,-9.299,-0.009,0.009,-0.023
67400,-1.156,-1.717,-9.297,-0.009,0.009,-0.023
67503,-1.137,-1.714,-9.292,-0.009,0.009,-0.023
67606,-1.154,-1.712,-9.297,-0.009,0.009,-0.023
67709,-1.14,-1.712,-9.287,-0.009,0.009,-0.023
67812,-1.144,-1.721,-9.29,-0.009,0.009,-0.023
67915,-1.152,-1.714,-9.297,-0.009,0.009,-0.023
68018,-1.149,-1.707,-9.292,-0.009,0.009,-0.023
68121,-1.147,-1.714,-9.309,-0.009,0.009,-0.023
68224,-1.147,-1.719,-9.287,-0.009,0.009,-0.023
68327,-1.156,-1.712,-9.268,-0.009,0.009,-0.024
68430,-1.152,-1.714,-9.29,-0.009,0.009,-0.023
68533,-1.14,-1.712,-9.297,-0.009,0.009,-0.024
68636,-1.152,-1.707,-9.294,-0.009,0.009,-0.023
68739,-1.161,-1.709,-9.282,-0.009,0.009,-0.023
68842,-1.152,-1.717,-9.301,-0.009,0.009,-0.023
68945,-1.142,-1.705,-9.294,-0.009,0.009,-0.023
69048,-1.14,-1.705,-9.27,-0.009,0.009,-0.023
69151,-1.14,-1.709,-9.282,-0.009,0.009,-0.023
69254,-1.144,-1.714,-9.301,-0.009,0.009,-0.023
69357,-1.147,-1.707,-9.292,-0.009,0.009,-0.023
69460,-1.156,-1.707,-9.29,-0.009,0.009,-0.023
69563,-1.152,-1.705,-9.297,-0.009,0.009,-0.023
69666,-1.152,-1.717,-9.294,-0.009,0.009,-0.023
69769,-1.147,-1.714,-9.311,-0.009,0.009,-0.023
69872,-1.147,-1.719,-9.292,-0.009,0.009,-0.023
69975,-1.149,-1.714,-9.299,-0.009,0.009,-0.023
70078,-1.152,-1.712,-9.29,-0.009,0.008,-0.023
70181,-1.149,-1.714,-9.29,-0.009,0.009,-0.023
70284,-1.164,-1.714,-9.301,-0.009,0.009,-0.023
70387,-1.147,-1.712,-9.309,-0.009,0.009,-0.023
70490,-1.149,-1.705,-9.294,-0.009,0.009,-0.023
70593,-1.147,-1.709,-9.299,-0.009,0.009,-0.023
70696,-1.147,-1.712,-9.299,-0.009,0.009,-0.023
70799,-1.152,-1.709,-9.278,-0.009,0.009,-0.023
70902,-1.156,-1.714,-9.287,-0.009,0.01,-0.023
71005,-1.144,-1.709,-9.292,-0.009,0.009,-0.023
71108,-1.156,-1.717,-9.309,-0.009,0.01,-0.023
71211,-1.152,-1.707,-9.287,-0.009,0.009,-0.023
71314,-1.149,-1.717,-9.292,-0.009,0.009,-0.023
71417,-1.149,-1.712,-9.316,-0.009,0.009,-0.023
71520,-1.142,-1.707,-9.301,-0.009,0.009,-0.023
71623,-1.149,-1.717,-9.304,-0.009,0.009,-0.023
71726,-1.152,-1.709,-9.292,-0.009,0.009,-0.023
71829,-1.154,-1.712,-9.29,-0.009,0.009,-0.023
71932,-1.147,-1.702,-9.297,-0.009,0.009,-0.023
72035,-1.144,-1.714,-9.287,-0.009,0.009,-0.023
72138,-1.156,-1.705,-9.297,-0.009,0.009,-0.023
72241,-1.142,-1.714,-9.301,-0.009,0.009,-0.023
72344,-1.147,-1.707,-9.294,-0.009,0.009,-0.023
72447,-1.154,-1.707,-9.294,-0.009,0.009,-0.023
72550,-1.144,-1.702,-9.29,-0.009,0.009,-0.023
72653,-1.149,-1.712,-9.29,-0.009,0.009,-0.023
72756,-1.152,-1.707,-9.282,-0.009,0.009,-0.022
72859,-1.154,-1.714,-9.301,-0.009,0.009,-0.023
72962,-1.147,-1.714,-9.294,-0.008,0.009,-0.023
73065,-1.149,-1.707,-9.292,-0.009,0.009,-0.023
73168,-1.147,-1.714,-9.29,-0.009,0.009,-0.023
73271,-1.154,-1.7,-9.304,-0.009,0.009,-0.023
73374,-1.142,-1.712,-9.294,-0.009,0.009,-0.023
73477,-1.154,-1.709,-9.299,-0.009,0.009,-0.023
73580,-1.156,-1.712,-9.285,-0.009,0.009,-0.023
73683,-1.147,-1.721,-9.294,-0.009,0.009,-0.023
73786,-1.152,-1.707,-9.297,-0.009,0.009,-0.023
73889,-1.154,-1.695,-9.287,-0.009,0.009,-0.023
73992,-1.156,-1.705,-9.292,-0.009,0.009,-0.023
74095,-1.14,-1.717,-9.292,-0.009,0.009,-0.023
74198,-1.142,-1.719,-9.299,-0.009,0.009,-0.023
74301,-1.142,-1.712,-9.285,-0.008,0.009,-0.023
74404,-1.144,-1.709,-9.292,-0.009,0.009,-0.023
74507,-1.154,-1.709,-9.294,-0.009,0.009,-0.023
74610,-1.161,-1.719,-9.285,-0.009,0.009,-0.022
74713,-1.154,-1.7,-9.297,-0.009,0.009,-0.023
74816,-1.144,-1.712,-9.287,-0.009,0.009,-0.023
74919,-1.147,-1.709,-9.282,-0.009,0.009,-0.023
75022,-1.149,-1.705,-9.292,-0.009,0.009,-0.023
75125,-1.149,-1.702,-9.292,-0.009,0.009,-0.023
75228,-1.152,-1.712,-9.304,-0.009,0.009,-0.023
75331,-1.149,-1.709,-9.299,-0.009,0.009,-0.023
75434,-1.142,-1.697,-9.292,-0.009,0.009,-0.023
75537,-1.137,-1.7,-9.306,-0.009,0.009,-0.023
75640,-1.142,-1.705,-9.297,-0.009,0.009,-0.023
75743,-1.152,-1.714,-9.301,-0.009,0.009,-0.023
75846,-1.144,-1.714,-9.301,-0.009,0.009,-0.023
75949,-1.137,-1.709,-9.304,-0.009,0.009,-0.023
76052,-1.137,-1.712,-9.287,-0.009,0.009,-0.023
76155,-1.147,-1.707,-9.292,-0.009,0.009,-0.023
76258,-1.149,-1.707,-9.287,-0.009,0.009,-0.023
76361,-1.149,-1.707,-9.278,-0.009,0.009,-0.023
76464,-1.152,-1.707,-9.294,-0.009,0.009,-0.023
76567,-1.152,-1.707,-9.282,-0.009,0.01,-0.023
76670,-1.149,-1.707,-9.297,-0.009,0.009,-0.023
76773,-1.156,-1.712,-9.297,-0.009,0.009,-0.023
76876,-1.154,-1.707,-9.287,-0.009,0.009,-0.023
76979,-1.152,-1.717,-9.306,-0.009,0.009,-0.023
77082,-1.147,-1.714,-9.299,-0.009,0.009,-0.023
77185,-1.154,-1.717,-9.294,-0.009,0.009,-0.023
77288,-1.154,-1.707,-9.304,-0.009,0.009,-0.023
77391,-1.144,-1.702,-9.294,-0.009,0.009,-0.023
77494,-1.149,-1.709,-9.304,-0.009,0.009,-0.023
77597,-1.14,-1.7,-9.294,-0.009,0.009,-0.023
77700,-1.147,-1.702,-9.287,-0.009,0.009,-0.023
77803,-1.144,-1.7,-9.299,-0.009,0.009,-0.022
77906,-1.142,-1.712,-9.294,-0.009,0.009,-0.023
78009,-1.144,-1.705,-9.285,-0.008,0.009,-0.023
78112,-1.149,-1.714,-9.311,-0.009,0.009,-0.023
78215,-1.149,-1.707,-9.285,-0.009,0.009,-0.023
78318,-1.152,-1.7,-9.294,-0.009,0.009,-0.023
78421,-1.149,-1.695,-9.294,-0.009,0.009,-0.023
78524,-1.152,-1.707,-9.287,-0.009,0.009,-0.023
78627,-1.147,-1.709,-9.311,-0.009,0.009,-0.023
78730,-1.135,-1.717,-9.282,-0.009,0.009,-0.023
78833,-1.14,-1.705,-9.282,-0.009,0.009,-0.023
78936,-1.154,-1.709,-9.292,-0.009,0.009,-0.023
79039,-1.149,-1.717,-9.29,-0.009,0.009,-0.023
79142,-1.147,-1.705,-9.297,-0.009,0.009,-0.023
79245,-1.14,-1.714,-9.294,-0.009,0.009,-0.023
79348,-1.137,-1.717,-9.29,-0.009,0.009,-0.023
79451,-1.14,-1.721,-9.306,-0.009,0.009,-0.023
79554,-1.142,-1.707,-9.29,-0.009,0.009,-0.023
79657,-1.147,-1.712,-9.285,-0.009,0.009,-0.023
79760,-1.152,-1.707,-9.282,-0.009,0.009,-0.023
79863,-1.159,-1.714,-9.292,-0.009,0.009,-0.023
79966,-1.147,-1.705,-9.292,-0.009,0.009,-0.023
80069,-1.137,-1.717,-9.29,-0.009,0.009,-0.023
80172,-1.149,-1.709,-9.29,-0.009,0.009,-0.023
80275,-1.142,-1.719,-9.29,-0.009,0.009,-0.023
80378,-1.147,-1.712,-9.28,-0.009,0.009,-0.023
80481,-1.149,-1.7,-9.304,-0.009,0.009,-0.023
80584,-1.152,-1.707,-9.306,-0.009,0.009,-0.023
80687,-1.142,-1.709,-9.285,-0.009,0.009,-0.023
80790,-1.144,-1.719,-9.292,-0.009,0.009,-0.023
80893,-1.147,-1.705,-9.292,-0.009,0.009,-0.023
80996,-1.147,-1.724,-9.292,-0.009,0.009,-0.023
81099,-1.152,-1.719,-9.299,-0.009,0.009,-0.023
81202,-1.142,-1.707,-9.306,-0.009,0.009,-0.023
81305,-1.149,-1.714,-9.285,-0.009,0.009,-0.022
81408,-1.149,-1.709,-9.294,-0.009,0.009,-0.023
81511,-1.142,-1.707,-9.301,-0.009,0.009,-0.023
81614,-1.152,-1.709,-9.306,-0.009,0.009,-0.023
81717,-1.144,-1.707,-9.294,-0.009,0.01,-0.023
81820,-1.144,-1.712,-9.292,-0.009,0.009,-0.023
81923,-1.144,-1.712,-9.266,-0.009,0.009,-0.023
82026,-1.144,-1.709,-9.297,-0.009,0.009,-0.023
82129,-1.144,-1.712,-9.297,-0.009,0.009,-0.023
82232,-1.149,-1.717,-9.287,-0.009,0.009,-0.023
82335,-1.142,-1.707,-9.297,-0.009,0.009,-0.023
82438,-1.149,-1.712,-9.285,-0.009,0.009,-0.023
82541,-1.144,-1.707,-9.278,-0.009,0.009,-0.023
82644,-1.154,-1.714,-9.306,-0.009,0.009,-0.023
82747,-1.149,-1.714,-9.282,-0.009,0.009,-0.023
82850,-1.152,-1.712,-9.29,-0.009,0.009,-0.023
82953,-1.147,-1.712,-9.294,-0.009,0.009,-0.023
83056,-1.156,-1.709,-9.28,-0.009,0.009,-0.023
83159,-1.147,-1.709,-9.299,-0.009,0.009,-0.023
83262,-1.147,-1.702,-9.292,-0.009,0.009,-0.023
83365,-1.166,-1.707,-9.301,-0.009,0.009,-0.023
83468,-1.142,-1.705,-9.29,-0.009,0.01,-0.023
83571,-1.156,-1.705,-9.294,-0.009,0.009,-0.022
83674,-1.14,-1.705,-9.294,-0.009,0.009,-0.023
83777,-1.149,-1.707,-9.287,-0.009,0.009,-0.023
83880,-1.161,-1.707,-9.294,-0.008,0.01,-0.023
83983,-1.147,-1.714,-9.287,-0.009,0.009,-0.023
84086,-1.156,-1.712,-9.287,-0.009,0.009,-0.023
84189,-1.149,-1.709,-9.297,-0.009,0.009,-0.023
84292,-1.149,-1.714,-9.292,-0.009,0.009,-0.023
84395,-1.152,-1.719,-9.29,-0.009,0.009,-0.023
84498,-1.154,-1.717,-9.285,-0.009,0.009,-0.023
84601,-1.144,-1.707,-9.297,-0.009,0.009,-0.023
84704,-1.154,-1.707,-9.297,-0.009,0.009,-0.023
84807,-1.152,-1.719,-9.285,-0.009,0.009,-0.022
84910,-1.144,-1.707,-9.294,-0.009,0.009,-0.023
85013,-1.149,-1.707,-9.285,-0.009,0.009,-0.023
85116,-1.149,-1.712,-9.304,-0.009,0.009,-0.023
85219,-1.149,-1.714,-9.294,-0.009,0.009,-0.023
85322,-1.142,-1.709,-9.292,-0.009,0.009,-0.023
85425,-1.147,-1.717,-9.29,-0.009,0.009,-0.023
85528,-1.149,-1.712,-9.297,-0.009,0.009,-0.023
85631,-1.159,-1.714,-9.29,-0.009,0.009,-0.023
85734,-1.154,-1.724,-9.287,-0.009,0.009,-0.023
85837,-1.14,-1.705,-9.282,-0.009,0.009,-0.023
85940,-1.144,-1.707,-9.275,-0.009,0.009,-0.023
86043,-1.149,-1.714,-9.299,-0.009,0.009,-0.023
86146,-1.149,-1.705,-9.297,-0.009,0.009,-0.023
86249,-1.159,-1.719,-9.29,-0.009,0.009,-0.023
86352,-1.14,-1.714,-9.287,-0.009,0.009,-0.023
86455,-1.149,-1.709,-9.297,-0.009,0.009,-0.023
86558,-1.147,-1.709,-9.282,-0.009,0.009,-0.023
86661,-1.142,-1.709,-9.282,-0.009,0.009,-0.023
86764,-1.144,-1.714,-9.287,-0.009,0.009,-0.023
86867,-1.142,-1.707,-9.297,-0.009,0.009,-0.023
86970,-1.147,-1.712,-9.28,-0.009,0.009,-0.023
87073,-1.154,-1.709,-9.297,-0.009,0.009,-0.023
87176,-1.154,-1.721,-9.294,-0.009,0.01,-0.023
87279,-1.147,-1.724,-9.292,-0.009,0.009,-0.023
87382,-1.144,-1.717,-9.29,-0.009,0.009,-0.023
87485,-1.132,-1.714,-9.282,-0.009,0.009,-0.023
87588,-1.147,-1.724,-9.287,-0.009,0.009,-0.023
87691,-1.147,-1.702,-9.294,-0.009,0.009,-0.023
87794,-1.154,-1.707,-9.299,-0.009,0.009,-0.023
87897,-1.154,-1.702,-9.299,-0.009,0.009,-0.023
88000,-1.152,-1.707,-9.292,-0.009,0.009,-0.023
88103,-1.147,-1.712,-9.287,-0.009,0.009,-0.023
88206,-1.154,-1.702,-9.292,-0.009,0.009,-0.023
88309,-1.154,-1.705,-9.28,-0.009,0.009,-0.023
88412,-1.147,-1.709,-9.285,-0.009,0.009,-0.023
88515,-1.147,-1.714,-9.285,-0.009,0.009,-0.023
88618,-1.154,-1.709,-9.278,-0.009,0.009,-0.023
88721,-1.137,-1.705,-9.285,-0.009,0.009,-0.023
88824,-1.149,-1.712,-9.292,-0.009,0.009,-0.023
88927,-1.154,-1.712,-9.294,-0.009,0.009,-0.023
89030,-1.154,-1.712,-9.294,-0.009,0.009,-0.023
89133,-1.159,-1.717,-9.28,-0.009,0.009,-0.023
89236,-1.14,-1.714,-9.294,-0.009,0.009,-0.023
89339,-1.164,-1.714,-9.29,-0.009,0.009,-0.023
89442,-1.152,-1.712,-9.29,-0.009,0.009,-0.023
89545,-1.147,-1.707,-9.282,-0.009,0.009,-0.023
89648,-1.14,-1.702,-9.294,-0.009,0.009,-0.023
89751,-1.147,-1.712,-9.287,-0.009,0.009,-0.022
89854,-1.147,-1.714,-9.304,-0.009,0.009,-0.023
89957,-1.154,-1.707,-9.292,-0.009,0.009,-0.023
90060,-1.156,-1.724,-9.287,-0.009,0.009,-0.023
90163,-1.152,-1.712,-9.285,-0.009,0.009,-0.023
90266,-1.144,-1.714,-9.29,-0.009,0.009,-0.023
90369,-1.152,-1.695,-9.304,-0.009,0.009,-0.023
90472,-1.149,-1.719,-9.292,-0.009,0.009,-0.023
90575,-1.14,-1.695,-9.294,-0.009,0.009,-0.023
90678,-1.142,-1.712,-9.282,-0.009,0.009,-0.023
90781,-1.149,-1.714,-9.297,-0.009,0.009,-0.023
90884,-1.137,-1.705,-9.29,-0.009,0.009,-0.023
90987,-1.147,-1.724,-9.292,-0.009,0.009,-0.023
91090,-1.142,-1.714,-9.285,-0.009,0.009,-0.023
91193,-1.142,-1.714,-9.29,-0.009,0.009,-0.023
91296,-1.154,-1.717,-9.287,-0.009,0.009,-0.023
91399,-1.147,-1.717,-9.294,-0.009,0.009,-0.023
91502,-1.149,-1.709,-9.297,-0.009,0.009,-0.023
91605,-1.149,-1.714,-9.294,-0.008,0.009,-0.023
91708,-1.144,-1.709,-9.28,-0.009,0.009,-0.023
91811,-1.152,-1.714,-9.292,-0.009,0.009,-0.023
91914,-1.149,-1.712,-9.297,-0.009,0.009,-0.024
92017,-1.147,-1.714,-9.304,-0.009,0.009,-0.023
92120,-1.147,-1.717,-9.292,-0.009,0.009,-0.023
92223,-1.154,-1.712,-9.282,-0.009,0.009,-0.023
92326,-1.144,-1.709,-9.301,-0.009,0.009,-0.023
92429,-1.144,-1.709,-9.287,-0.009,0.009,-0.023
92532,-1.152,-1.705,-9.287,-0.009,0.009,-0.023
92635,-1.149,-1.721,-9.299,-0.009,0.009,-0.023
92738,-1.147,-1.702,-9.287,-0.009,0.009,-0.023
92841,-1.149,-1.707,-9.297,-0.009,0.009,-0.023
92944,-1.149,-1.721,-9.294,-0.009,0.009,-0.023
93047,-1.14,-1.705,-9.287,-0.009,0.009,-0.023
93150,-1.147,-1.709,-9.297,-0.009,0.009,-0.023
93253,-1.152,-1.709,-9.299,-0.009,0.009,-0.023
93356,-1.156,-1.709,-9.275,-0.009,0.009,-0.023
93459,-1.156,-1.702,-9.294,-0.009,0.01,-0.023
93562,-1.149,-1.717,-9.287,-0.009,0.01,-0.023
93665,-1.149,-1.719,-9.292,-0.009,0.009,-0.023
93768,-1.14,-1.709,-9.316,-0.009,0.009,-0.023
93871,-1.149,-1.712,-9.273,-0.009,0.009,-0.023
93974,-1.147,-1.707,-9.311,-0.009,0.009,-0.023
94077,-1.154,-1.709,-9.287,-0.009,0.009,-0.023
94180,-1.152,-1.714,-9.292,-0.009,0.009,-0.023
94283,-1.144,-1.707,-9.301,-0.009,0.008,-0.023
94386,-1.147,-1.717,-9.301,-0.009,0.009,-0.023
94489,-1.147,-1.697,-9.292,-0.009,0.01,-0.023
94592,-1.147,-1.695,-9.29,-0.009,0.009,-0.023
94695,-1.154,-1.717,-9.278,-0.009,0.009,-0.023
94798,-1.149,-1.712,-9.285,-0.009,0.009,-0.023
94901,-1.149,-1.7,-9.299,-0.009,0.009,-0.022
95004,-1.144,-1.702,-9.282,-0.009,0.009,-0.023
95107,-1.152,-1.719,-9.294,-0.009,0.009,-0.023
95210,-1.147,-1.712,-9.299,-0.009,0.009,-0.023
95313,-1.161,-1.714,-9.29,-0.009,0.009,-0.023
95416,-1.152,-1.721,-9.297,-0.009,0.009,-0.023
95519,-1.152,-1.709,-9.297,-0.009,0.008,-0.023
95622,-1.152,-1.709,-9.29,-0.009,0.009,-0.023
95725,-1.147,-1.693,-9.301,-0.009,0.009,-0.023
95828,-1.144,-1.702,-9.285,-0.009,0.009,-0.023
95931,-1.147,-1.707,-9.292,-0.009,0.009,-0.023
96034,-1.154,-1.707,-9.294,-0.009,0.009,-0.023
96137,-1.147,-1.709,-9.304,-0.009,0.009,-0.023
96240,-1.156,-1.712,-9.297,-0.009,0.009,-0.023
96343,-1.152,-1.717,-9.28,-0.009,0.009,-0.023
96446,-1.149,-1.7,-9.292,-0.009,0.009,-0.023
96549,-1.152,-1.702,-9.28,-0.009,0.009,-0.023
96652,-1.144,-1.717,-9.28,-0.009,0.009,-0.023
96755,-1.144,-1.702,-9.294,-0.009,0.009,-0.023
96858,-1.142,-1.705,-9.275,-0.009,0.009,-0.023
96961,-1.147,-1.712,-9.306,-0.009,0.009,-0.023
97064,-1.152,-1.712,-9.297,-0.009,0.009,-0.023
97167,-1.144,-1.705,-9.285,-0.009,0.009,-0.023
97270,-1.14,-1.719,-9.294,-0.009,0.009,-0.023
97373,-1.147,-1.7,-9.294,-0.009,0.009,-0.023
97476,-1.156,-1.714,-9.28,-0.009,0.009,-0.023
97579,-1.144,-1.712,-9.282,-0.009,0.01,-0.023
97682,-1.149,-1.707,-9.287,-0.009,0.009,-0.023
97785,-1.147,-1.705,-9.29,-0.009,0.009,-0.023
97888,-1.142,-1.7,-9.292,-0.009,0.009,-0.023
97991,-1.142,-1.712,-9.282,-0.009,0.009,-0.023
98094,-1.149,-1.709,-9.29,-0.009,0.009,-0.023
98197,-1.156,-1.705,-9.285,-0.009,0.009,-0.023
98300,-1.152,-1.714,-9.282,-0.009,0.009,-0.023
98403,-1.154,-1.709,-9.292,-0.009,0.009,-0.023
98506,-1.147,-1.702,-9.297,-0.009,0.009,-0.023
98609,-1.147,-1.712,-9.292,-0.009,0.009,-0.023
98712,-1.161,-1.707,-9.301,-0.009,0.009,-0.023
98815,-1.142,-1.709,-9.287,-0.009,0.009,-0.023
98918,-1.142,-1.707,-9.287,-0.009,0.009,-0.023
99021,-1.142,-1.709,-9.29,-0.009,0.009,-0.023
99124,-1.152,-1.707,-9.28,-0.009,0.009,-0.023
99227,-1.147,-1.7,-9.306,-0.009,0.009,-0.023
99330,-1.149,-1.714,-9.294,-0.009,0.009,-0.023
99433,-1.156,-1.714,-9.29,-0.009,0.009,-0.023
99536,-1.147,-1.705,-9.285,-0.009,0.009,-0.023
99639,-1.144,-1.712,-9.294,-0.009,0.009,-0.023
99742,-1.152,-1.709,-9.306,-0.009,0.009,-0.023
99845,-1.144,-1.712,-9.304,-0.009,0.009,-0.023
99948,-1.152,-1.705,-9.285,-0.009,0.009,-0.023
100051,-1.149,-1.712,-9.287,-0.009,0.009,-0.023
100154,-1.142,-1.709,-9.285,-0.009,0.009,-0.023
100257,-1.147,-1.709,-9.27,-0.009,0.009,-0.023
100360,-1.144,-1.712,-9.285,-0.009,0.009,-0.023
100463,-1.142,-1.712,-9.287,-0.009,0.009,-0.022
100566,-1.144,-1.712,-9.278,-0.009,0.009,-0.023
100669,-1.152,-1.702,-9.287,-0.009,0.009,-0.023
100772,-1.144,-1.707,-9.306,-0.009,0.009,-0.023
100875,-1.149,-1.709,-9.294,-0.009,0.009,-0.022
100978,-1.14,-1.583,-9.325,0.045,0.006,-0.022
101081,-1.164,-2.009,-9.242,0.102,0.002,-0.031
101184,-1.154,-1.97,-9.232,-0.006,0.009,-0.023
101287,-1.166,-1.963,-9.246,-0.009,0.009,-0.023
101390,-1.164,-1.966,-9.263,-0.009,0.009,-0.023
101493,-1.156,-1.97,-9.242,-0.009,0.009,-0.022
101596,-1.156,-1.968,-9.244,-0.009,0.009,-0.023
101699,-1.149,-1.963,-9.244,-0.009,0.009,-0.023
101802,-1.161,-1.966,-9.242,-0.009,0.009,-0.023
101905,-1.149,-1.97,-9.244,-0.009,0.009,-0.023
102008,-1.166,-1.982,-9.246,-0.009,0.01,-0.023
102111,-1.159,-1.978,-9.239,-0.009,0.009,-0.023
102214,-1.156,-1.966,-9.239,-0.009,0.009,-0.023
102317,-1.164,-1.968,-9.237,-0.009,0.009,-0.023
102420,-1.149,-1.97,-9.23,-0.009,0.009,-0.023
102523,-1.154,-1.968,-9.246,-0.009,0.009,-0.023
102626,-1.159,-1.966,-9.251,-0.009,0.009,-0.023
102729,-1.159,-1.968,-9.23,-0.009,0.009,-0.023
102832,-1.171,-1.968,-9.244,-0.009,0.009,-0.023
102935,-1.161,-1.973,-9.242,-0.009,0.009,-0.023
103038,-1.164,-1.97,-9.234,-0.009,0.009,-0.023
103141,-1.159,-1.961,-9.244,-0.009,0.009,-0.023
103244,-1.154,-1.966,-9.246,-0.009,0.009,-0.023
103347,-1.156,-1.973,-9.239,-0.009,0.009,-0.023
103450,-1.156,-1.975,-9.227,-0.009,0.009,-0.023
103553,-1.161,-1.966,-9.246,-0.009,0.009,-0.023
103656,-1.156,-1.973,-9.242,-0.009,0.01,-0.023
103759,-1.168,-1.968,-9.234,-0.009,0.009,-0.023
103862,-1.164,-1.98,-9.249,-0.009,0.009,-0.023
103965,-1.161,-1.968,-9.251,-0.009,0.009,-0.023
104068,-1.154,-1.966,-9.244,-0.009,0.009,-0.023
104171,-1.156,-1.97,-9.249,-0.009,0.009,-0.023
104274,-1.166,-1.961,-9.225,-0.009,0.009,-0.023
104377,-1.164,-1.973,-9.232,-0.009,0.009,-0.023
104480,-1.156,-1.963,-9.222,-0.009,0.009,-0.023
104583,-1.159,-1.958,-9.225,-0.009,0.009,-0.023
104686,-1.161,-1.966,-9.234,-0.009,0.009,-0.023
104789,-1.166,-1.968,-9.23,-0.009,0.009,-0.023
104892,-1.161,-1.966,-9.227,-0.009,0.009,-0.023
104995,-1.166,-1.963,-9.234,-0.009,0.009,-0.023
105098,-1.152,-1.966,-9.234,-0.009,0.009,-0.023
105201,-1.161,-1.968,-9.244,-0.009,0.009,-0.023
105304,-1.166,-1.97,-9.237,-0.009,0.009,-0.023
105407,-1.164,-1.961,-9.239,-0.009,0.009,-0.023
105510,-1.154,-1.978,-9.234,-0.009,0.009,-0.023
105613,-1.164,-1.958,-9.239,-0.009,0.009,-0.023
105716,-1.168,-1.975,-9.227,-0.009,0.009,-0.023
105819,-1.154,-1.973,-9.244,-0.009,0.009,-0.023
105922,-1.166,-1.973,-9.237,-0.009,0.009,-0.023
106025,-1.166,-1.968,-9.244,-0.009,0.009,-0.023
106128,-1.161,-1.98,-9.242,-0.009,0.009,-0.024
106231,-1.159,-1.963,-9.249,-0.008,0.009,-0.023
106334,-1.152,-1.97,-9.234,-0.009,0.009,-0.023
106437,-1.156,-1.961,-9.237,-0.009,0.009,-0.023
106540,-1.152,-1.966,-9.234,-0.009,0.009,-0.023
106643,-1.164,-1.958,-9.244,-0.009,0.009,-0.023
106746,-1.154,-1.963,-9.249,-0.009,0.009,-0.023
106849,-1.164,-1.966,-9.242,-0.009,0.009,-0.023
106952,-1.161,-1.956,-9.234,-0.009,0.009,-0.023
107055,-1.159,-1.963,-9.254,-0.009,0.009,-0.023
107158,-1.161,-1.958,-9.23,-0.009,0.009,-0.023
107261,-1.154,-1.975,-9.249,-0.009,0.009,-0.023
107364,-1.166,-1.97,-9.246,-0.009,0.009,-0.023
107467,-1.161,-1.973,-9.239,-0.009,0.009,-0.023
107570,-1.171,-1.963,-9.232,-0.009,0.009,-0.023
107673,-1.152,-1.97,-9.237,-0.009,0.009,-0.023
107776,-1.156,-1.97,-9.244,-0.009,0.009,-0.022
107879,-1.156,-1.963,-9.237,-0.009,0.009,-0.023
107982,-1.159,-1.975,-9.225,-0.009,0.009,-0.023
108085,-1.168,-1.973,-9.246,-0.009,0.009,-0.023
108188,-1.154,-1.97,-9.23,-0.009,0.009,-0.023
108291,-1.164,-1.97,-9.256,-0.009,0.009,-0.023
108394,-1.161,-1.966,-9.225,-0.009,0.009,-0.023
108497,-1.159,-1.98,-9.234,-0.009,0.009,-0.023
108600,-1.159,-1.963,-9.227,-0.009,0.009,-0.023
108703,-1.159,-1.973,-9.251,-0.009,0.009,-0.023
108806,-1.156,-1.966,-9.239,-0.009,0.009,-0.023
108909,-1.156,-1.963,-9.239,-0.009,0.009,-0.023
109012,-1.164,-1.968,-9.23,-0.009,0.009,-0.023
109115,-1.161,-1.963,-9.225,-0.009,0.009,-0.023
109218,-1.161,-1.975,-9.242,-0.009,0.009,-0.023
109321,-1.161,-1.978,-9.237,-0.009,0.009,-0.023
109424,-1.154,-1.963,-9.239,-0.009,0.009,-0.023
109527,-1.156,-1.961,-9.23,-0.008,0.009,-0.023
109630,-1.168,-1.975,-9.232,-0.009,0.009,-0.023
109733,-1.161,-1.968,-9.239,-0.009,0.009,-0.023
109836,-1.161,-1.97,-9.239,-0.009,0.009,-0.023
109939,-1.154,-1.968,-9.234,-0.009,0.009,-0.023
110042,-1.161,-1.97,-9.23,-0.009,0.009,-0.023
110145,-1.161,-1.966,-9.234,-0.009,0.009,-0.023
110248,-1.147,-1.975,-9.246,-0.009,0.009,-0.023
110351,-1.152,-1.966,-9.234,-0.009,0.009,-0.023
110454,-1.154,-1.97,-9.246,-0.009,0.008,-0.023
110557,-1.156,-1.966,-9.23,-0.009,0.009,-0.023
110660,-1.161,-1.961,-9.237,-0.009,0.009,-0.023
110763,-1.154,-1.978,-9.225,-0.009,0.009,-0.023
110866,-1.156,-1.97,-9.244,-0.009,0.009,-0.023
110969,-1.161,-1.966,-9.234,-0.009,0.009,-0.023
111072,-1.156,-1.961,-9.234,-0.009,0.009,-0.023
111175,-1.159,-1.97,-9.242,-0.009,0.009,-0.023
111278,-1.159,-1.958,-9.234,-0.009,0.009,-0.022
111381,-1.161,-1.966,-9.23,-0.009,0.01,-0.023
111484,-1.156,-1.968,-9.242,-0.009,0.009,-0.023
111587,-1.161,-1.963,-9.225,-0.009,0.009,-0.023
111690,-1.159,-1.963,-9.246,-0.009,0.009,-0.023
111793,-1.149,-1.97,-9.256,-0.009,0.009,-0.023
111896,-1.159,-1.963,-9.242,-0.009,0.009,-0.023
111999,-1.156,-1.966,-9.232,-0.009,0.009,-0.023
112102,-1.152,-1.961,-9.237,-0.009,0.009,-0.023
112205,-1.166,-1.98,-9.244,-0.009,0.009,-0.023
112308,-1.156,-1.968,-9.251,-0.009,0.009,-0.023
112411,-1.161,-1.973,-9.234,-0.009,0.009,-0.023
112514,-1.156,-1.963,-9.227,-0.009,0.009,-0.023
112617,-1.161,-1.966,-9.227,-0.009,0.009,-0.023
112720,-1.159,-1.968,-9.256,-0.009,0.009,-0.023
112823,-1.161,-1.975,-9.22,-0.009,0.009,-0.023
112926,-1.156,-1.97,-9.237,-0.009,0.009,-0.023
113029,-1.159,-1.97,-9.232,-0.009,0.009,-0.023
113132,-1.159,-1.958,-9.23,-0.009,0.009,-0.023
113235,-1.159,-1.968,-9.234,-0.009,0.009,-0.023
113338,-1.149,-1.968,-9.239,-0.009,0.009,-0.023
113441,-1.164,-1.966,-9.239,-0.009,0.009,-0.023
113544,-1.161,-1.963,-9.227,-0.009,0.009,-0.023
113647,-1.161,-1.958,-9.227,-0.009,0.009,-0.023
113750,-1.164,-1.973,-9.22,-0.009,0.009,-0.023
113853,-1.171,-1.973,-9.244,-0.009,0.009,-0.023
113956,-1.159,-1.975,-9.232,-0.009,0.009,-0.023
114059,-1.156,-1.961,-9.244,-0.009,0.009,-0.023
114162,-1.154,-1.966,-9.242,-0.009,0.009,-0.023
114265,-1.156,-1.97,-9.237,-0.009,0.009,-0.023
114368,-1.164,-1.97,-9.246,-0.009,0.009,-0.023
114471,-1.152,-1.97,-9.225,-0.009,0.009,-0.023
114574,-1.164,-1.958,-9.239,-0.009,0.009,-0.023
114677,-1.161,-1.97,-9.237,-0.009,0.009,-0.023
114780,-1.154,-1.973,-9.234,-0.009,0.009,-0.023
114883,-1.152,-1.968,-9.234,-0.009,0.009,-0.023
114986,-1.154,-1.961,-9.222,-0.009,0.009,-0.023
115089,-1.164,-1.966,-9.215,-0.009,0.009,-0.023
115192,-1.164,-1.963,-9.232,-0.009,0.009,-0.023
115295,-1.154,-1.963,-9.234,-0.009,0.009,-0.023
115398,-1.161,-1.968,-9.244,-0.009,0.009,-0.023
115501,-1.164,-1.966,-9.244,-0.009,0.01,-0.023
115604,-1.156,-1.963,-9.23,-0.009,0.009,-0.023
115707,-1.154,-1.963,-9.249,-0.009,0.009,-0.023
115810,-1.154,-1.973,-9.244,-0.009,0.01,-0.023
115913,-1.164,-1.961,-9.244,-0.009,0.009,-0.023
116016,-1.156,-1.966,-9.246,-0.009,0.009,-0.023
116119,-1.164,-1.966,-9.232,-0.009,0.009,-0.023
116222,-1.164,-1.966,-9.237,-0.009,0.009,-0.023
116325,-1.156,-1.973,-9.244,-0.009,0.009,-0.023
116428,-1.159,-1.968,-9.239,-0.009,0.009,-0.023
116531,-1.164,-1.975,-9.222,-0.009,0.009,-0.023
116634,-1.159,-1.963,-9.244,-0.009,0.009,-0.023
116737,-1.154,-1.963,-9.237,-0.009,0.009,-0.023
116840,-1.149,-1.97,-9.234,-0.009,0.009,-0.023
116943,-1.164,-1.973,-9.234,-0.009,0.009,-0.023
117046,-1.161,-1.98,-9.242,-0.009,0.009,-0.023
117149,-1.159,-1.968,-9.242,-0.009,0.009,-0.023
117252,-1.161,-1.968,-9.222,-0.009,0.009,-0.023
117355,-1.161,-1.975,-9.242,-0.009,0.009,-0.023
117458,-1.156,-1.973,-9.242,-0.009,0.009,-0.023
117561,-1.156,-1.963,-9.225,-0.009,0.009,-0.023
117664,-1.156,-1.966,-9.251,-0.009,0.009,-0.023
117767,-1.164,-1.968,-9.246,-0.009,0.009,-0.023
117870,-1.161,-1.973,-9.244,-0.009,0.009,-0.022
117973,-1.156,-1.97,-9.244,-0.009,0.009,-0.023
118076,-1.166,-1.961,-9.242,-0.009,0.009,-0.023
118179,-1.156,-1.966,-9.23,-0.009,0.009,-0.023
118282,-1.171,-1.968,-9.225,-0.009,0.009,-0.023
118385,-1.168,-1.963,-9.239,-0.009,0.009,-0.023
118488,-1.154,-1.978,-9.222,-0.009,0.009,-0.023
118591,-1.164,-1.973,-9.242,-0.009,0.009,-0.023
118694,-1.154,-1.975,-9.237,-0.009,0.009,-0.023
118797,-1.149,-1.963,-9.23,-0.009,0.009,-0.023
118900,-1.161,-1.97,-9.239,-0.009,0.009,-0.023
119003,-1.142,-1.966,-9.232,-0.009,0.009,-0.023
119106,-1.152,-1.963,-9.239,-0.009,0.009,-0.023
119209,-1.159,-1.97,-9.246,-0.009,0.009,-0.023
119312,-1.166,-1.958,-9.232,-0.009,0.009,-0.023
119415,-1.159,-1.985,-9.234,-0.009,0.009,-0.023
119518,-1.152,-1.97,-9.239,-0.009,0.009,-0.023
119621,-1.161,-1.961,-9.239,-0.009,0.009,-0.023
119724,-1.164,-1.97,-9.239,-0.009,0.009,-0.023
119827,-1.156,-1.968,-9.246,-0.009,0.009,-0.023
119930,-1.154,-1.975,-9.23,-0.009,0.009,-0.023
120033,-1.156,-1.966,-9.234,-0.009,0.009,-0.023
120136,-1.154,-1.966,-9.242,-0.009,0.009,-0.022
120239,-1.159,-1.975,-9.242,-0.009,0.009,-0.023
120342,-1.164,-1.963,-9.239,-0.009,0.009,-0.023
120445,-1.159,-1.98,-9.242,-0.009,0.009,-0.022
120548,-1.164,-1.966,-9.23,-0.009,0.009,-0.023
120651,-1.166,-1.966,-9.242,-0.009,0.009,-0.023
120754,-1.154,-1.973,-9.234,-0.009,0.009,-0.023
120857,-1.159,-1.968,-9.234,-0.009,0.009,-0.023
120960,-1.166,-1.973,-9.239,-0.009,0.009,-0.023
121063,-1.164,-1.973,-9.239,-0.009,0.009,-0.023
121166,-1.159,-1.968,-9.23,-0.009,0.009,-0.023
121269,-1.161,-1.97,-9.232,-0.009,0.009,-0.023
121372,-1.159,-1.97,-9.246,-0.009,0.009,-0.023
121475,-1.154,-1.97,-9.232,-0.009,0.009,-0.023
121578,-1.152,-1.973,-9.237,-0.009,0.009,-0.023
121681,-1.161,-1.963,-9.237,-0.009,0.009,-0.022
121784,-1.159,-1.966,-9.239,-0.009,0.009,-0.023
121887,-1.168,-1.978,-9.239,-0.009,0.009,-0.023
121990,-1.159,-1.973,-9.232,-0.009,0.009,-0.023
122093,-1.149,-1.966,-9.218,-0.009,0.009,-0.023
122196,-1.156,-1.966,-9.232,-0.009,0.008,-0.023
122299,-1.161,-1.963,-9.246,-0.009,0.009,-0.023
122402,-1.164,-1.966,-9.23,-0.009,0.009,-0.023
122505,-1.159,-1.973,-9.251,-0.009,0.009,-0.023
122608,-1.166,-1.97,-9.237,-0.009,0.009,-0.023
122711,-1.156,-1.975,-9.242,-0.009,0.009,-0.023
122814,-1.161,-1.968,-9.239,-0.009,0.009,-0.023
122917,-1.161,-1.954,-9.222,-0.009,0.009,-0.023
123020,-1.166,-1.966,-9.237,-0.009,0.009,-0.023
123123,-1.161,-1.963,-9.244,-0.009,0.009,-0.023
123226,-1.164,-1.966,-9.234,-0.009,0.009,-0.023
123329,-1.154,-1.973,-9.234,-0.009,0.009,-0.023
123432,-1.161,-1.961,-9.239,-0.009,0.01,-0.023
123535,-1.159,-1.973,-9.239,-0.009,0.009,-0.023
123638,-1.156,-1.968,-9.23,-0.009,0.009,-0.023
123741,-1.159,-1.975,-9.244,-0.009,0.009,-0.023
123844,-1.154,-1.978,-9.254,-0.009,0.009,-0.023
123947,-1.154,-1.968,-9.246,-0.009,0.009,-0.023
124050,-1.159,-1.968,-9.23,-0.009,0.009,-0.023
124153,-1.159,-1.973,-9.232,-0.009,0.008,-0.023
124256,-1.159,-1.954,-9.234,-0.009,0.009,-0.023
124359,-1.156,-1.968,-9.239,-0.009,0.009,-0.023
124462,-1.166,-1.966,-9.244,-0.009,0.009,-0.023
124565,-1.164,-1.966,-9.227,-0.009,0.009,-0.023
124668,-1.152,-1.994,-9.242,-0.009,0.009,-0.024
124771,-1.154,-1.968,-9.239,-0.009,0.009,-0.023
124874,-1.159,-1.963,-9.244,-0.009,0.009,-0.023
124977,-1.166,-1.968,-9.234,-0.009,0.009,-0.023
125080,-1.159,-1.968,-9.234,-0.009,0.009,-0.023
125183,-1.159,-1.966,-9.244,-0.009,0.009,-0.023
125286,-1.159,-1.968,-9.218,-0.009,0.009,-0.023
125389,-1.156,-1.97,-9.234,-0.009,0.009,-0.023
125492,-1.147,-1.968,-9.237,-0.009,0.009,-0.023
125595,-1.161,-1.97,-9.215,-0.009,0.009,-0.023
125698,-1.154,-1.968,-9.23,-0.009,0.009,-0.023
125801,-1.152,-1.968,-9.218,-0.009,0.009,-0.023
125904,-1.156,-1.97,-9.242,-0.009,0.009,-0.023
126007,-1.154,-1.963,-9.239,-0.009,0.009,-0.023
126110,-1.159,-1.958,-9.251,-0.009,0.009,-0.023
126213,-1.166,-1.956,-9.234,-0.009,0.009,-0.023
126316,-1.154,-1.968,-9.249,-0.009,0.009,-0.023
126419,-1.164,-1.97,-9.22,-0.009,0.009,-0.023
126522,-1.156,-1.966,-9.239,-0.009,0.009,-0.023
126625,-1.164,-1.966,-9.234,-0.009,0.009,-0.023
126728,-1.164,-1.968,-9.242,-0.009,0.009,-0.023
126831,-1.156,-1.968,-9.237,-0.009,0.009,-0.023
126934,-1.161,-1.97,-9.254,-0.009,0.008,-0.023
127037,-1.166,-1.978,-9.239,-0.009,0.009,-0.023
127140,-1.156,-1.982,-9.237,-0.009,0.009,-0.023
127243,-1.161,-1.973,-9.225,-0.009,0.009,-0.023
127346,-1.161,-1.966,-9.239,-0.009,0.008,-0.023
127449,-1.156,-1.958,-9.242,-0.009,0.009,-0.023
127552,-1.161,-1.97,-9.22,-0.009,0.009,-0.023
127655,-1.147,-1.975,-9.222,-0.009,0.009,-0.023
127758,-1.154,-1.973,-9.232,-0.009,0.009,-0.023
127861,-1.154,-1.963,-9.23,-0.009,0.008,-0.023
127964,-1.156,-1.961,-9.218,-0.009,0.009,-0.023
128067,-1.154,-1.968,-9.232,-0.009,0.009,-0.023
128170,-1.161,-1.97,-9.242,-0.009,0.009,-0.023
128273,-1.164,-1.97,-9.246,-0.009,0.009,-0.023
128376,-1.166,-1.97,-9.239,-0.009,0.009,-0.023
128479,-1.159,-1.97,-9.222,-0.009,0.009,-0.023
128582,-1.161,-1.966,-9.244,-0.009,0.009,-0.023
128685,-1.166,-1.973,-9.222,-0.009,0.008,-0.023
128788,-1.159,-1.966,-9.222,-0.009,0.009,-0.023
128891,-1.156,-1.973,-9.222,-0.009,0.009,-0.023
128994,-1.159,-1.968,-9.251,-0.009,0.009,-0.023
129097,-1.156,-1.97,-9.23,-0.009,0.009,-0.023
129200,-1.168,-1.973,-9.23,-0.009,0.009,-0.023
129303,-1.164,-1.973,-9.239,-0.009,0.009,-0.023
129406,-1.152,-1.97,-9.232,-0.009,0.009,-0.023
129509,-1.156,-1.975,-9.239,-0.009,0.009,-0.023
129612,-1.166,-1.966,-9.244,-0.009,0.009,-0.023
129715,-1.154,-1.963,-9.22,-0.009,0.009,-0.023
129818,-1.161,-1.97,-9.244,-0.009,0.009,-0.023
129921,-1.164,-1.975,-9.237,-0.009,0.009,-0.023
130024,-1.156,-1.963,-9.239,-0.009,0.009,-0.023
130127,-1.152,-1.968,-9.234,-0.009,0.009,-0.023
130230,-1.152,-1.966,-9.256,-0.009,0.009,-0.023
130333,-1.159,-1.961,-9.239,-0.009,0.009,-0.023
130436,-1.164,-1.975,-9.237,-0.009,0.009,-0.023
130539,-1.159,-1.966,-9.225,-0.009,0.009,-0.023
130642,-1.166,-1.966,-9.227,-0.009,0.009,-0.023
130745,-1.164,-1.97,-9.234,-0.009,0.009,-0.023
130848,-1.147,-1.973,-9.258,-0.009,0.009,-0.023
130951,-1.156,-1.975,-9.242,-0.009,0.009,-0.023
131054,-1.166,-1.975,-9.239,-0.009,0.009,-0.023
131157,-1.159,-1.975,-9.244,-0.009,0.009,-0.023
131260,-1.164,-1.97,-9.232,-0.009,0.009,-0.023
131363,-1.156,-1.97,-9.249,-0.009,0.009,-0.023
131466,-1.164,-1.968,-9.239,-0.009,0.009,-0.023
131569,-1.164,-1.966,-9.232,-0.009,0.009,-0.023
131672,-1.159,-1.968,-9.234,-0.009,0.009,-0.023
131775,-1.156,-1.968,-9.242,-0.009,0.009,-0.023
131878,-1.154,-1.97,-9.244,-0.009,0.008,-0.023
131981,-1.156,-1.966,-9.234,-0.009,0.009,-0.023
132084,-1.159,-1.966,-9.234,-0.009,0.009,-0.022
132187,-1.166,-1.966,-9.237,-0.009,0.009,-0.023
132290,-1.154,-1.968,-9.258,-0.009,0.009,-0.023
132393,-1.164,-1.97,-9.244,-0.009,0.009,-0.023
132496,-1.156,-1.973,-9.237,-0.009,0.009,-0.023
132599,-1.166,-1.963,-9.225,-0.009,0.009,-0.023
132702,-1.149,-1.973,-9.215,-0.009,0.009,-0.023
132805,-1.152,-1.963,-9.239,-0.009,0.009,-0.024
132908,-1.161,-1.97,-9.225,-0.009,0.009,-0.022
133011,-1.166,-1.963,-9.225,-0.009,0.009,-0.023
133114,-1.161,-1.97,-9.239,-0.009,0.009,-0.023
133217,-1.164,-1.97,-9.239,-0.009,0.009,-0.023
133320,-1.156,-1.973,-9.251,-0.009,0.009,-0.023
133423,-1.161,-1.975,-9.225,-0.009,0.009,-0.023
133526,-1.161,-1.966,-9.232,-0.009,0.009,-0.023
133629,-1.152,-1.968,-9.232,-0.009,0.008,-0.023
133732,-1.166,-1.968,-9.244,-0.009,0.009,-0.023
133835,-1.154,-1.97,-9.246,-0.009,0.009,-0.023
133938,-1.154,-1.966,-9.244,-0.009,0.009,-0.023
134041,-1.166,-1.963,-9.237,-0.009,0.009,-0.023
134144,-1.164,-1.97,-9.239,-0.009,0.009,-0.023
134247,-1.161,-1.973,-9.251,-0.009,0.009,-0.023
134350,-1.166,-1.973,-9.23,-0.009,0.009,-0.023
134453,-1.156,-1.98,-9.225,-0.009,0.009,-0.023
134556,-1.156,-1.973,-9.234,-0.009,0.009,-0.023
134659,-1.156,-1.973,-9.234,-0.009,0.009,-0.023
134762,-1.154,-1.968,-9.242,-0.009,0.009,-0.023
134865,-1.166,-1.975,-9.258,-0.009,0.009,-0.023
134968,-1.152,-1.973,-9.237,-0.009,0.009,-0.023
135071,-1.156,-1.97,-9.23,-0.009,0.009,-0.023
135174,-1.161,-1.97,-9.242,-0.009,0.009,-0.023
135277,-1.152,-1.968,-9.237,-0.009,0.009,-0.023
135380,-1.159,-1.97,-9.234,-0.009,0.009,-0.023
135483,-1.166,-1.975,-9.242,-0.009,0.009,-0.022
135586,-1.168,-1.961,-9.232,-0.009,0.009,-0.022
135689,-1.152,-1.973,-9.22,-0.009,0.009,-0.023
135792,-1.161,-1.966,-9.225,-0.009,0.009,-0.023
135895,-1.152,-1.966,-9.249,-0.009,0.009,-0.023
135998,-1.161,-1.968,-9.234,-0.009,0.009,-0.023
136101,-1.159,-1.97,-9.237,-0.009,0.009,-0.023
136204,-1.159,-1.968,-9.249,-0.009,0.009,-0.023
136307,-1.161,-1.961,-9.239,-0.009,0.009,-0.023
136410,-1.156,-1.978,-9.251,-0.009,0.009,-0.023
136513,-1.168,-1.966,-9.239,-0.009,0.009,-0.023
136616,-1.164,-1.978,-9.237,-0.009,0.009,-0.023
136719,-1.173,-1.975,-9.232,-0.009,0.009,-0.023
136822,-1.156,-1.961,-9.232,-0.009,0.009,-0.023
136925,-1.161,-1.966,-9.218,-0.009,0.009,-0.023
137028,-1.142,-2.014,-9.244,-0.009,0.009,-0.023
137131,-1.142,-1.975,-9.237,-0.009,0.01,-0.023
137234,-1.154,-1.954,-9.227,-0.009,0.009,-0.023
137337,-1.152,-1.97,-9.246,-0.009,0.009,-0.023
137440,-1.164,-1.973,-9.227,-0.009,0.009,-0.023
137543,-1.166,-1.968,-9.227,-0.009,0.009,-0.023
137646,-1.152,-1.966,-9.249,-0.009,0.009,-0.023
137749,-1.159,-1.956,-9.242,-0.009,0.009,-0.023
137852,-1.161,-1.978,-9.23,-0.009,0.008,-0.023
137955,-1.156,-1.958,-9.237,-0.009,0.009,-0.023
138058,-1.161,-1.961,-9.239,-0.009,0.009,-0.023
138161,-1.161,-1.961,-9.242,-0.009,0.009,-0.023
138264,-1.171,-1.978,-9.234,-0.009,0.009,-0.023
138367,-1.164,-1.968,-9.232,-0.009,0.009,-0.023
138470,-1.161,-1.956,-9.232,-0.009,0.009,-0.023
138573,-1.164,-1.958,-9.237,-0.009,0.009,-0.023
138676,-1.166,-1.966,-9.232,-0.009,0.009,-0.023
138779,-1.156,-1.973,-9.234,-0.009,0.009,-0.023
138882,-1.156,-1.956,-9.23,-0.009,0.009,-0.023
138985,-1.161,-1.97,-9.234,-0.009,0.009,-0.023
139088,-1.156,-1.966,-9.232,-0.009,0.01,-0.023
139191,-1.154,-1.966,-9.239,-0.009,0.009,-0.023
139294,-1.154,-1.968,-9.249,-0.009,0.009,-0.023
139397,-1.161,-1.966,-9.237,-0.009,0.009,-0.023
139500,-1.164,-1.968,-9.225,-0.009,0.009,-0.023
139603,-1.149,-1.966,-9.239,-0.009,0.009,-0.023
139706,-1.164,-1.966,-9.22,-0.009,0.009,-0.023
139809,-1.156,-1.975,-9.227,-0.009,0.009,-0.023
139912,-1.161,-1.966,-9.222,-0.009,0.009,-0.023
140015,-1.164,-1.954,-9.242,-0.009,0.01,-0.022
140118,-1.147,-1.966,-9.244,-0.009,0.009,-0.023
140221,-1.159,-1.97,-9.246,-0.009,0.009,-0.023
140324,-1.152,-1.968,-9.251,-0.009,0.009,-0.023
140427,-1.156,-1.966,-9.251,-0.009,0.009,-0.023
140530,-1.171,-1.97,-9.242,-0.009,0.009,-0.023
140633,-1.164,-1.97,-9.222,-0.009,0.009,-0.022
140736,-1.171,-1.963,-9.239,-0.009,0.009,-0.023
140839,-1.161,-1.961,-9.23,-0.009,0.009,-0.023
140942,-1.154,-1.97,-9.239,-0.009,0.009,-0.023
141045,-1.104,-1.458,-9.323,-1.52,0.112,0.099
141148,-1.085,-0.515,-9.445,-0.227,0.021,-0.004
141251,-1.089,-0.572,-9.433,-0.017,0.008,-0.022
141354,-1.094,-0.584,-9.433,-0.009,0.009,-0.022
141457,-1.087,-0.584,-9.443,-0.009,0.009,-0.023
141560,-1.085,-0.579,-9.419,-0.009,0.009,-0.023
141663,-1.085,-0.577,-9.436,-0.009,0.009,-0.022
141766,-1.087,-0.577,-9.44,-0.009,0.009,-0.023
141869,-1.087,-0.582,-9.438,-0.009,0.009,-0.023
141972,-1.092,-0.57,-9.445,-0.009,0.009,-0.023
142075,-1.085,-0.572,-9.431,-0.009,0.009,-0.023
142178,-1.092,-0.57,-9.424,-0.009,0.009,-0.022
142281,-1.092,-0.575,-9.433,-0.009,0.009,-0.022
142384,-1.087,-0.575,-9.431,-0.009,0.009,-0.023
142487,-1.077,-0.472,-9.428,0.319,-0.01,-0.052
142590,-1.125,-1.259,-9.364,0.215,-0.006,-0.041
142693,-1.125,-1.202,-9.369,0.001,0.008,-0.024
142796,-1.12,-1.202,-9.373,-0.008,0.009,-0.023
142899,-1.125,-1.204,-9.376,-0.009,0.009,-0.023
143002,-1.13,-1.214,-9.371,-0.009,0.009,-0.023
143105,-1.12,-1.204,-9.371,-0.009,0.009,-0.023
143208,-1.13,-1.202,-9.364,-0.009,0.009,-0.023
143311,-1.116,-1.199,-9.371,-0.009,0.009,-0.023
143414,-1.12,-1.192,-9.373,-0.009,0.009,-0.023
143517,-1.128,-1.207,-9.366,-0.009,0.009,-0.023
143620,-1.118,-1.199,-9.361,-0.009,0.009,-0.023
143723,-1.125,-1.204,-9.364,-0.009,0.009,-0.023
143826,-1.12,-1.195,-9.38,-0.009,0.009,-0.023
143929,-1.12,-1.199,-9.359,-0.009,0.009,-0.023
144032,-1.13,-1.195,-9.349,-0.009,0.009,-0.023
144135,-1.135,-1.207,-9.369,-0.009,0.009,-0.023
144238,-1.125,-1.204,-9.376,-0.009,0.009,-0.023
144341,-1.13,-1.216,-9.361,-0.009,0.009,-0.023
144444,-1.125,-1.202,-9.359,-0.009,0.009,-0.023
144547,-1.12,-1.199,-9.371,-0.009,0.009,-0.023
144650,-1.135,-1.207,-9.378,-0.009,0.009,-0.023
144753,-1.12,-1.207,-9.376,-0.009,0.009,-0.023
144856,-1.12,-1.202,-9.378,-0.009,0.009,-0.023
144959,-1.125,-1.207,-9.361,-0.009,0.009,-0.023
145062,-1.118,-1.202,-9.369,-0.009,0.009,-0.023
145165,-1.123,-1.209,-9.369,-0.009,0.009,-0.023
145268,-1.13,-1.202,-9.359,-0.009,0.009,-0.023
145371,-1.123,-1.195,-9.373,-0.009,0.009,-0.023
145474,-1.13,-1.195,-9.385,-0.009,0.009,-0.023
145577,-1.123,-1.214,-9.369,-0.008,0.009,-0.023
145680,-1.12,-1.207,-9.366,-0.009,0.009,-0.023
145783,-1.128,-1.195,-9.378,-0.009,0.009,-0.023
145886,-1.116,-1.202,-9.376,-0.009,0.009,-0.023
145989,-1.125,-1.204,-9.359,-0.009,0.009,-0.023
146092,-1.13,-1.207,-9.371,-0.009,0.009,-0.023
146195,-1.13,-1.202,-9.371,-0.009,0.009,-0.023
146298,-1.12,-1.211,-9.378,-0.009,0.009,-0.023
146401,-1.137,-1.214,-9.357,-0.009,0.009,-0.023
146504,-1.123,-1.211,-9.373,-0.009,0.009,-0.023
146607,-1.13,-1.197,-9.366,-0.009,0.009,-0.023
146710,-1.12,-1.197,-9.366,-0.009,0.009,-0.023
146813,-1.125,-1.202,-9.364,-0.009,0.009,-0.023
146916,-1.125,-1.207,-9.359,-0.009,0.009,-0.023
147019,-1.125,-1.219,-9.371,-0.009,0.009,-0.023
147122,-1.118,-1.216,-9.373,-0.009,0.009,-0.023
147225,-1.12,-1.199,-9.354,-0.008,0.009,-0.023
147328,-1.113,-1.202,-9.373,-0.009,0.009,-0.023
147431,-1.125,-1.204,-9.376,-0.009,0.009,-0.023
147534,-1.125,-1.207,-9.364,-0.009,0.009,-0.023
147637,-1.116,-1.211,-9.366,-0.009,0.009,-0.023
147740,-1.116,-1.209,-9.364,-0.009,0.009,-0.023
147843,-1.118,-1.204,-9.364,-0.009,0.009,-0.023
147946,-1.125,-1.202,-9.378,-0.009,0.009,-0.023
148049,-1.123,-1.202,-9.364,-0.009,0.009,-0.023
148152,-1.12,-1.204,-9.371,-0.009,0.009,-0.023
148255,-1.12,-1.211,-9.366,-0.009,0.009,-0.023
148358,-1.12,-1.204,-9.373,-0.009,0.009,-0.023
148461,-1.123,-1.207,-9.366,-0.009,0.009,-0.023
148564,-1.12,-1.211,-9.376,-0.009,0.009,-0.023
148667,-1.125,-1.197,-9.361,-0.009,0.009,-0.023
148770,-1.123,-1.192,-9.359,-0.009,0.009,-0.023
148873,-1.137,-1.199,-9.357,-0.009,0.009,-0.023
148976,-1.12,-1.214,-9.371,-0.009,0.01,-0.022
149079,-1.116,-1.204,-9.378,-0.009,0.009,-0.023
149182,-1.125,-1.202,-9.376,-0.009,0.009,-0.023
149285,-1.132,-1.204,-9.357,-0.009,0.009,-0.023
149388,-1.118,-1.214,-9.376,-0.009,0.009,-0.023
149491,-1.12,-1.199,-9.366,-0.009,0.009,-0.023
149594,-1.12,-1.202,-9.369,-0.009,0.009,-0.023
149697,-1.123,-1.197,-9.371,-0.009,0.009,-0.023
149800,-1.123,-1.207,-9.373,-0.009,0.008,-0.023
149903,-1.125,-1.204,-9.359,-0.009,0.009,-0.023
150006,-1.125,-1.199,-9.369,-0.009,0.009,-0.023
150109,-1.123,-1.204,-9.369,-0.009,0.009,-0.023
150212,-1.123,-1.197,-9.369,-0.009,0.009,-0.023
150315,-1.128,-1.195,-9.364,-0.009,0.009,-0.023
150418,-1.123,-1.202,-9.364,-0.009,0.009,-0.023
150521,-1.125,-1.204,-9.383,-0.009,0.009,-0.023
150624,-1.123,-1.199,-9.359,-0.009,0.009,-0.023
150727,-1.123,-1.199,-9.371,-0.009,0.009,-0.023
150830,-1.118,-1.202,-9.38,-0.009,0.009,-0.023
150933,-1.109,-1.202,-9.371,-0.009,0.009,-0.023
151036,-1.111,-1.207,-9.373,-0.009,0.008,-0.023
151139,-1.128,-1.204,-9.371,-0.009,0.009,-0.023
151242,-1.12,-1.204,-9.378,-0.009,0.008,-0.023
151345,-1.123,-1.202,-9.373,-0.009,0.009,-0.023
151448,-1.12,-1.204,-9.369,-0.009,0.009,-0.023
151551,-1.118,-1.214,-9.357,-0.009,0.009,-0.023
151654,-1.118,-1.195,-9.376,-0.009,0.009,-0.024
151757,-1.12,-1.207,-9.388,-0.009,0.008,-0.023
151860,-1.125,-1.199,-9.364,-0.009,0.009,-0.023
151963,-1.118,-1.202,-9.366,-0.009,0.009,-0.023
152066,-1.125,-1.199,-9.378,-0.009,0.009,-0.023
152169,-1.123,-1.199,-9.354,-0.009,0.009,-0.023
152272,-1.125,-1.199,-9.366,-0.009,0.009,-0.023
152375,-1.116,-1.199,-9.366,-0.009,0.009,-0.024
152478,-1.13,-1.214,-9.359,-0.009,0.009,-0.023
152581,-1.113,-1.199,-9.366,-0.009,0.009,-0.022
152684,-1.123,-1.192,-9.357,-0.009,0.009,-0.023
152787,-1.12,-1.197,-9.38,-0.009,0.009,-0.023
152890,-1.12,-1.195,-9.378,-0.009,0.009,-0.023
152993,-1.116,-1.228,-9.369,-0.009,0.009,-0.023
153096,-1.13,-1.197,-9.369,-0.009,0.009,-0.023
153199,-1.123,-1.202,-9.378,-0.009,0.009,-0.024
153302,-1.123,-1.207,-9.385,-0.009,0.009,-0.023
153405,-1.12,-1.226,-9.364,-0.009,0.01,-0.023
153508,-1.144,-1.14,-9.359,-0.009,0.01,-0.022
153611,-1.12,-1.207,-9.352,-0.009,0.009,-0.023
153714,-1.118,-1.207,-9.352,-0.009,0.009,-0.023
153817,-1.128,-1.209,-9.366,-0.01,0.009,-0.022
153920,-1.12,-1.192,-9.366,-0.009,0.009,-0.023
154023,-1.113,-1.207,-9.383,-0.009,0.009,-0.023
154126,-1.123,-1.192,-9.369,-0.009,0.009,-0.023
154229,-1.12,-1.204,-9.376,-0.009,0.009,-0.023
154332,-1.118,-1.202,-9.373,-0.009,0.009,-0.023
154435,-1.12,-1.202,-9.359,-0.009,0.009,-0.023
154538,-1.125,-1.204,-9.373,-0.009,0.009,-0.023
154641,-1.109,-1.202,-9.364,-0.009,0.009,-0.023
154744,-1.113,-1.197,-9.369,-0.009,0.009,-0.023
154847,-1.12,-1.199,-9.361,-0.009,0.009,-0.023
154950,-1.109,-1.204,-9.361,-0.009,0.009,-0.023
155053,-1.116,-1.209,-9.364,-0.009,0.009,-0.023
155156,-1.125,-1.209,-9.373,-0.009,0.009,-0.023
155259,-1.13,-1.192,-9.373,-0.009,0.009,-0.023
155362,-1.123,-1.211,-9.371,-0.009,0.009,-0.023
155465,-1.125,-1.199,-9.349,-0.009,0.009,-0.023
155568,-1.123,-1.204,-9.373,-0.009,0.009,-0.023
155671,-1.125,-1.202,-9.369,-0.009,0.009,-0.023
155774,-1.12,-1.199,-9.364,-0.009,0.009,-0.023
155877,-1.12,-1.204,-9.376,-0.009,0.009,-0.023
155980,-1.118,-1.214,-9.359,-0.009,0.009,-0.023
156083,-1.118,-1.216,-9.376,-0.009,0.009,-0.023
156186,-1.118,-1.202,-9.371,-0.009,0.009,-0.023
156289,-1.125,-1.204,-9.373,-0.009,0.009,-0.023
156392,-1.113,-1.199,-9.373,-0.009,0.009,-0.023
156495,-1.125,-1.211,-9.373,-0.009,0.009,-0.023
156598,-1.13,-1.202,-9.373,-0.009,0.009,-0.023
156701,-1.12,-1.197,-9.357,-0.009,0.009,-0.023
156804,-1.125,-1.204,-9.364,-0.009,0.009,-0.023
156907,-1.13,-1.195,-9.364,-0.009,0.009,-0.023
157010,-1.123,-1.202,-9.369,-0.009,0.009,-0.023
157113,-1.13,-1.214,-9.364,-0.009,0.009,-0.023
157216,-1.128,-1.199,-9.361,-0.009,0.009,-0.023
157319,-1.109,-1.204,-9.371,-0.009,0.009,-0.023
157422,-1.123,-1.209,-9.38,-0.009,0.009,-0.023
157525,-1.118,-1.202,-9.371,-0.009,0.009,-0.023
157628,-1.125,-1.197,-9.369,-0.009,0.009,-0.023
157731,-1.125,-1.195,-9.376,-0.009,0.009,-0.023
157834,-1.113,-1.226,-9.376,-0.009,0.009,-0.023
157937,-1.109,-1.245,-9.378,-0.009,0.009,-0.023
158040,-1.097,-1.259,-9.354,-0.009,0.008,-0.023
158143,-1.113,-1.214,-9.369,-0.009,0.009,-0.023
158246,-1.123,-1.221,-9.359,-0.009,0.009,-0.023
158349,-1.118,-1.209,-9.385,-0.009,0.009,-0.023
158452,-1.128,-1.214,-9.359,-0.009,0.009,-0.023
158555,-1.118,-1.228,-9.364,-0.009,0.009,-0.023
158658,-1.118,-1.199,-9.373,-0.009,0.009,-0.022
158761,-1.132,-1.197,-9.359,-0.009,0.009,-0.023
158864,-1.113,-1.211,-9.369,-0.009,0.009,-0.023
158967,-1.123,-1.214,-9.373,-0.009,0.009,-0.023
159070,-1.123,-1.199,-9.369,-0.009,0.009,-0.023
159173,-1.123,-1.202,-9.373,-0.009,0.009,-0.023
159276,-1.118,-1.202,-9.369,-0.009,0.009,-0.023
159379,-1.118,-1.202,-9.371,-0.009,0.008,-0.023
159482,-1.123,-1.211,-9.373,-0.009,0.009,-0.023
159585,-1.123,-1.197,-9.364,-0.009,0.009,-0.023
159688,-1.118,-1.207,-9.383,-0.009,0.009,-0.023
159791,-1.113,-1.197,-9.357,-0.009,0.008,-0.023
159894,-1.123,-1.204,-9.354,-0.009,0.009,-0.023
159997,-1.125,-1.209,-9.371,-0.009,0.009,-0.023
160100,-1.118,-1.207,-9.357,-0.009,0.009,-0.023
160203,-1.116,-1.207,-9.371,-0.009,0.009,-0.023
160306,-1.128,-1.219,-9.378,-0.009,0.009,-0.023
160409,-1.123,-1.197,-9.366,-0.009,0.009,-0.023
160512,-1.13,-1.216,-9.359,-0.009,0.009,-0.023
160615,-1.12,-1.204,-9.378,-0.009,0.009,-0.023
160718,-1.12,-1.199,-9.373,-0.009,0.009,-0.023
160821,-1.125,-1.202,-9.366,-0.009,0.009,-0.023
160924,-1.13,-1.199,-9.369,-0.009,0.009,-0.023
161027,-1.12,-1.209,-9.364,-0.009,0.009,-0.023
161130,-1.118,-1.202,-9.359,-0.009,0.009,-0.023
161233,-1.128,-1.207,-9.347,-0.009,0.009,-0.023
161336,-1.12,-1.209,-9.364,-0.009,0.009,-0.023
161439,-1.118,-1.209,-9.371,-0.009,0.009,-0.023
161542,-1.12,-1.207,-9.359,-0.009,0.009,-0.023
161645,-1.125,-1.209,-9.373,-0.009,0.009,-0.023
161748,-1.13,-1.199,-9.38,-0.009,0.009,-0.023
161851,-1.123,-1.199,-9.361,-0.009,0.009,-0.023
161954,-1.128,-1.209,-9.38,-0.009,0.009,-0.023
162057,-1.113,-1.199,-9.366,-0.009,0.009,-0.022
162160,-1.113,-1.202,-9.383,-0.009,0.009,-0.023
162263,-1.128,-1.202,-9.373,-0.009,0.009,-0.023
162366,-1.128,-1.204,-9.364,-0.009,0.009,-0.023
162469,-1.113,-1.188,-9.366,0.01,0.008,-0.026
162572,-1.137,-1.511,-9.33,0.11,0.001,-0.032
162675,-1.137,-1.484,-9.325,-0.004,0.008,-0.024
162778,-1.132,-1.477,-9.33,-0.008,0.009,-0.023
162881,-1.142,-1.482,-9.323,-0.009,0.009,-0.023
162984,-1.132,-1.48,-9.323,-0.009,0.009,-0.023
163087,-1.14,-1.475,-9.323,-0.009,0.009,-0.023
163190,-1.13,-1.465,-9.321,-0.009,0.009,-0.023
163293,-1.142,-1.475,-9.318,-0.009,0.009,-0.023
163396,-1.142,-1.48,-9.335,-0.009,0.009,-0.023
163499,-1.142,-1.477,-9.323,-0.009,0.009,-0.023
163602,-1.14,-1.472,-9.323,-0.009,0.009,-0.023
163705,-1.13,-1.477,-9.33,-0.009,0.009,-0.023
163808,-1.13,-1.48,-9.316,-0.009,0.009,-0.023
163911,-1.125,-1.477,-9.325,-0.009,0.009,-0.023
164014,-1.137,-1.468,-9.33,-0.009,0.009,-0.023
164117,-1.132,-1.468,-9.323,-0.009,0.009,-0.023
164220,-1.142,-1.47,-9.318,-0.009,0.009,-0.023
164323,-1.135,-1.48,-9.325,-0.009,0.009,-0.023
164426,-1.128,-1.482,-9.337,-0.009,0.009,-0.023
164529,-1.13,-1.484,-9.342,-0.009,0.009,-0.023
164632,-1.137,-1.47,-9.335,-0.009,0.009,-0.023
164735,-1.13,-1.482,-9.325,-0.009,0.009,-0.023
164838,-1.144,-1.482,-9.337,-0.009,0.009,-0.022
164941,-1.135,-1.48,-9.328,-0.009,0.009,-0.023
165044,-1.137,-1.468,-9.33,-0.009,0.009,-0.023
165147,-1.137,-1.475,-9.328,-0.009,0.009,-0.023
165250,-1.128,-1.475,-9.328,-0.009,0.009,-0.023
165353,-1.142,-1.475,-9.337,-0.009,0.009,-0.023
165456,-1.135,-1.47,-9.318,-0.009,0.009,-0.023
165559,-1.132,-1.475,-9.306,-0.009,0.009,-0.023
165662,-1.132,-1.475,-9.328,-0.009,0.009,-0.023
165765,-1.14,-1.472,-9.316,-0.009,0.009,-0.023
165868,-1.125,-1.48,-9.316,-0.009,0.009,-0.023
165971,-1.13,-1.48,-9.325,-0.009,0.009,-0.023
166074,-1.125,-1.477,-9.318,-0.009,0.009,-0.023
166177,-1.13,-1.475,-9.323,-0.009,0.009,-0.023
166280,-1.142,-1.468,-9.318,-0.009,0.009,-0.023
166383,-1.14,-1.472,-9.335,-0.009,0.009,-0.023
166486,-1.135,-1.477,-9.333,-0.009,0.009,-0.023
166589,-1.144,-1.468,-9.335,-0.009,0.009,-0.023
166692,-1.14,-1.477,-9.321,-0.009,0.008,-0.023
166795,-1.137,-1.47,-9.321,-0.009,0.009,-0.023
166898,-1.142,-1.47,-9.333,-0.009,0.009,-0.023
167001,-1.132,-1.477,-9.347,-0.009,0.009,-0.023
167104,-1.135,-1.475,-9.337,-0.009,0.009,-0.023
167207,-1.135,-1.475,-9.328,-0.009,0.009,-0.023
167310,-1.14,-1.465,-9.311,-0.009,0.009,-0.023
167413,-1.137,-1.475,-9.321,-0.009,0.009,-0.023
167516,-1.13,-1.468,-9.323,-0.009,0.009,-0.023
167619,-1.132,-1.482,-9.328,-0.009,0.008,-0.023
167722,-1.14,-1.477,-9.318,-0.009,0.009,-0.023
167825,-1.137,-1.472,-9.318,-0.009,0.009,-0.023
167928,-1.132,-1.47,-9.321,-0.009,0.009,-0.023
168031,-1.14,-1.482,-9.318,-0.009,0.009,-0.023
168134,-1.135,-1.48,-9.328,-0.009,0.009,-0.023
168237,-1.14,-1.48,-9.33,-0.009,0.009,-0.023
168340,-1.144,-1.477,-9.318,-0.009,0.009,-0.023
168443,-1.137,-1.475,-9.328,-0.009,0.009,-0.023
168546,-1.13,-1.477,-9.323,-0.009,0.009,-0.023
168649,-1.135,-1.482,-9.335,-0.009,0.009,-0.023
168752,-1.132,-1.472,-9.335,-0.009,0.009,-0.023
168855,-1.137,-1.47,-9.316,-0.009,0.008,-0.023
168958,-1.128,-1.475,-9.33,-0.009,0.009,-0.023
169061,-1.132,-1.487,-9.33,-0.009,0.009,-0.023
169164,-1.14,-1.475,-9.33,-0.009,0.009,-0.023
169267,-1.123,-1.475,-9.316,-0.009,0.009,-0.023
169370,-1.135,-1.472,-9.321,-0.009,0.009,-0.023
169473,-1.132,-1.477,-9.306,-0.009,0.009,-0.023
169576,-1.14,-1.48,-9.318,-0.009,0.009,-0.022
169679,-1.137,-1.487,-9.321,-0.009,0.009,-0.023
169782,-1.14,-1.475,-9.325,-0.009,0.009,-0.023
169885,-1.125,-1.48,-9.335,-0.009,0.009,-0.024
169988,-1.137,-1.472,-9.323,-0.009,0.009,-0.023
170091,-1.132,-1.472,-9.321,-0.009,0.009,-0.023
170194,-1.13,-1.47,-9.316,-0.009,0.009,-0.022
170297,-1.132,-1.477,-9.333,-0.009,0.009,-0.023
170400,-1.13,-1.48,-9.323,-0.009,0.009,-0.023
170503,-1.13,-1.47,-9.33,-0.009,0.009,-0.023
170606,-1.132,-1.477,-9.323,-0.009,0.009,-0.023
170709,-1.13,-1.475,-9.323,-0.009,0.009,-0.023
170812,-1.128,-1.482,-9.345,-0.009,0.009,-0.023
170915,-1.14,-1.468,-9.33,-0.009,0.009,-0.023
171018,-1.147,-1.475,-9.33,-0.009,0.009,-0.023
171121,-1.135,-1.482,-9.333,-0.009,0.009,-0.023
171224,-1.147,-1.482,-9.318,-0.009,0.009,-0.023
171327,-1.135,-1.477,-9.318,-0.009,0.009,-0.023
171430,-1.132,-1.472,-9.328,-0.009,0.009,-0.023
171533,-1.128,-1.48,-9.318,-0.009,0.009,-0.023
171636,-1.142,-1.468,-9.328,-0.009,0.009,-0.023
171739,-1.125,-1.472,-9.335,-0.009,0.009,-0.023
171842,-1.142,-1.475,-9.337,-0.009,0.009,-0.023
171945,-1.135,-1.472,-9.316,-0.009,0.009,-0.023
172048,-1.132,-1.468,-9.323,-0.009,0.009,-0.023
172151,-1.132,-1.463,-9.323,-0.009,0.009,-0.023
172254,-1.135,-1.472,-9.328,-0.009,0.008,-0.023
172357,-1.137,-1.472,-9.34,-0.009,0.009,-0.023
172460,-1.142,-1.484,-9.328,-0.009,0.009,-0.023
172563,-1.13,-1.475,-9.318,-0.009,0.009,-0.023
172666,-1.132,-1.477,-9.335,-0.009,0.009,-0.023
172769,-1.13,-1.468,-9.321,-0.009,0.009,-0.023
172872,-1.14,-1.489,-9.328,-0.009,0.009,-0.023
172975,-1.14,-1.472,-9.325,-0.009,0.009,-0.023
173078,-1.144,-1.477,-9.316,-0.009,0.009,-0.023
173181,-1.14,-1.482,-9.318,-0.009,0.009,-0.022
173284,-1.144,-1.475,-9.311,-0.009,0.009,-0.023
173387,-1.135,-1.482,-9.309,-0.009,0.009,-0.023
173490,-1.135,-1.47,-9.321,-0.009,0.008,-0.023
173593,-1.128,-1.48,-9.328,-0.009,0.009,-0.023
173696,-1.132,-1.482,-9.333,-0.009,0.009,-0.023
173799,-1.137,-1.475,-9.33,-0.009,0.009,-0.023
173902,-1.132,-1.472,-9.325,-0.009,0.009,-0.023
174005,-1.13,-1.475,-9.33,-0.009,0.009,-0.023
174108,-1.137,-1.484,-9.321,-0.009,0.009,-0.023
174211,-1.14,-1.475,-9.313,-0.009,0.009,-0.023
174314,-1.137,-1.482,-9.333,-0.009,0.009,-0.023
174417,-1.132,-1.482,-9.321,-0.009,0.009,-0.023
174520,-1.135,-1.48,-9.33,-0.009,0.009,-0.023
174623,-1.128,-1.47,-9.323,-0.009,0.009,-0.023
174726,-1.132,-1.48,-9.325,-0.009,0.009,-0.023
174829,-1.14,-1.482,-9.33,-0.009,0.009,-0.023
174932,-1.14,-1.472,-9.321,-0.009,0.009,-0.023
175035,-1.128,-1.47,-9.323,-0.009,0.009,-0.023
175138,-1.137,-1.477,-9.316,-0.009,0.009,-0.023
175241,-1.144,-1.47,-9.337,-0.009,0.009,-0.023
175344,-1.128,-1.475,-9.313,-0.009,0.009,-0.023
175447,-1.14,-1.48,-9.335,-0.009,0.009,-0.023
175550,-1.14,-1.48,-9.325,-0.009,0.009,-0.023
175653,-1.142,-1.477,-9.325,-0.009,0.009,-0.023
175756,-1.125,-1.47,-9.33,-0.009,0.009,-0.023
175859,-1.13,-1.475,-9.33,-0.009,0.009,-0.023
175962,-1.132,-1.468,-9.33,-0.009,0.009,-0.023
176065,-1.132,-1.465,-9.323,-0.009,0.009,-0.023
176168,-1.135,-1.48,-9.33,-0.009,0.009,-0.023
176271,-1.137,-1.48,-9.309,-0.009,0.009,-0.023
176374,-1.13,-1.475,-9.328,-0.009,0.009,-0.023
176477,-1.14,-1.48,-9.313,-0.009,0.009,-0.023
176580,-1.137,-1.475,-9.333,-0.009,0.009,-0.023
176683,-1.13,-1.48,-9.316,-0.009,0.009,-0.023
176786,-1.135,-1.472,-9.328,-0.009,0.009,-0.023
176889,-1.132,-1.47,-9.309,-0.009,0.009,-0.023
176992,-1.135,-1.468,-9.321,-0.009,0.009,-0.023
177095,-1.137,-1.475,-9.321,-0.009,0.009,-0.023
177198,-1.137,-1.472,-9.325,-0.009,0.009,-0.023
177301,-1.135,-1.475,-9.321,-0.009,0.009,-0.023
177404,-1.14,-1.468,-9.33,-0.009,0.009,-0.023
177507,-1.132,-1.477,-9.316,-0.009,0.009,-0.023
177610,-1.14,-1.487,-9.33,-0.009,0.009,-0.023
177713,-1.132,-1.48,-9.325,-0.009,0.009,-0.022
177816,-1.142,-1.48,-9.328,-0.009,0.009,-0.023
177919,-1.14,-1.48,-9.323,-0.009,0.009,-0.023
178022,-1.144,-1.484,-9.323,-0.009,0.009,-0.023
178125,-1.13,-1.47,-9.318,-0.009,0.009,-0.023
178228,-1.137,-1.475,-9.333,-0.009,0.009,-0.023
178331,-1.135,-1.468,-9.325,-0.009,0.009,-0.023
178434,-1.152,-1.48,-9.33,-0.009,0.009,-0.023
178537,-1.13,-1.482,-9.33,-0.008,0.009,-0.023
178640,-1.132,-1.477,-9.321,-0.009,0.009,-0.023
178743,-1.132,-1.472,-9.318,-0.009,0.009,-0.023
178846,-1.142,-1.48,-9.321,-0.009,0.009,-0.023
178949,-1.14,-1.48,-9.33,-0.009,0.009,-0.023
179052,-1.137,-1.475,-9.328,-0.009,0.009,-0.023
179155,-1.128,-1.472,-9.325,-0.009,0.009,-0.023
179258,-1.147,-1.475,-9.325,-0.008,0.009,-0.023
179361,-1.135,-1.477,-9.321,-0.009,0.009,-0.023
179464,-1.13,-1.475,-9.34,-0.009,0.009,-0.022
179567,-1.137,-1.48,-9.316,-0.009,0.009,-0.023
179670,-1.14,-1.482,-9.316,-0.009,0.009,-0.023
179773,-1.14,-1.484,-9.321,-0.009,0.009,-0.023
179876,-1.142,-1.47,-9.325,-0.009,0.009,-0.023
179979,-1.13,-1.468,-9.318,-0.009,0.009,-0.023
180082,-1.14,-1.48,-9.316,-0.009,0.009,-0.023
180185,-1.142,-1.487,-9.321,-0.009,0.009,-0.023
180288,-1.144,-1.475,-9.316,-0.009,0.009,-0.023
180391,-1.142,-1.472,-9.323,-0.009,0.009,-0.023
180494,-1.147,-1.482,-9.328,-0.009,0.009,-0.023
180597,-1.137,-1.468,-9.323,-0.009,0.008,-0.022
180700,-1.142,-1.482,-9.323,-0.009,0.009,-0.023
180803,-1.135,-1.475,-9.328,-0.009,0.009,-0.023
180906,-1.137,-1.472,-9.316,-0.009,0.009,-0.023
181009,-1.142,-1.477,-9.309,-0.009,0.009,-0.023
181112,-1.14,-1.475,-9.337,-0.009,0.009,-0.023
181215,-1.128,-1.472,-9.325,-0.009,0.009,-0.023
181318,-1.132,-1.482,-9.333,-0.009,0.009,-0.023
181421,-1.137,-1.477,-9.325,-0.009,0.009,-0.023
181524,-1.137,-1.475,-9.33,-0.009,0.009,-0.023
181627,-1.144,-1.48,-9.335,-0.009,0.009,-0.023
181730,-1.14,-1.472,-9.333,-0.009,0.009,-0.023
181833,-1.132,-1.468,-9.325,-0.009,0.009,-0.023
181936,-1.137,-1.482,-9.321,-0.009,0.009,-0.023
182039,-1.142,-1.468,-9.313,-0.009,0.009,-0.023
182142,-1.132,-1.482,-9.333,-0.009,0.009,-0.023
182245,-1.14,-1.484,-9.333,-0.009,0.009,-0.023
182348,-1.13,-1.477,-9.321,-0.009,0.009,-0.023
182451,-1.128,-1.484,-9.325,-0.009,0.009,-0.023
182554,-1.137,-1.482,-9.33,-0.009,0.009,-0.023
182657,-1.14,-1.475,-9.321,-0.008,0.009,-0.023
182760,-1.142,-1.463,-9.318,-0.009,0.009,-0.023
182863,-1.132,-1.477,-9.323,-0.009,0.009,-0.023
182966,-1.128,-1.472,-9.328,-0.009,0.009,-0.023
183069,-1.132,-1.48,-9.306,-0.009,0.009,-0.023
183172,-1.135,-1.475,-9.318,-0.009,0.009,-0.023
183275,-1.132,-1.482,-9.328,-0.009,0.009,-0.023
183378,-1.14,-1.475,-9.316,-0.009,0.009,-0.023
183481,-1.137,-1.477,-9.309,-0.009,0.009,-0.023
183584,-1.135,-1.463,-9.318,-0.009,0.009,-0.023
183687,-1.135,-1.475,-9.316,-0.009,0.009,-0.023
183790,-1.142,-1.47,-9.337,-0.009,0.009,-0.023
183893,-1.137,-1.472,-9.335,-0.009,0.009,-0.023
183996,-1.135,-1.475,-9.304,-0.009,0.009,-0.023
184099,-1.14,-1.48,-9.318,-0.009,0.009,-0.023
184202,-1.14,-1.477,-9.313,-0.009,0.009,-0.023
184305,-1.147,-1.48,-9.325,-0.009,0.009,-0.023
184408,-1.14,-1.475,-9.316,-0.009,0.009,-0.022
184511,-1.137,-1.477,-9.323,-0.009,0.009,-0.023
184614,-1.14,-1.48,-9.318,-0.009,0.009,-0.023
184717,-1.132,-1.477,-9.323,-0.009,0.009,-0.023
184820,-1.13,-1.47,-9.304,-0.009,0.009,-0.023
184923,-1.137,-1.475,-9.306,-0.009,0.009,-0.023
185026,-1.135,-1.48,-9.321,-0.009,0.009,-0.023
185129,-1.137,-1.477,-9.318,-0.009,0.009,-0.023
185232,-1.135,-1.48,-9.325,-0.009,0.009,-0.023
185335,-1.14,-1.472,-9.328,-0.009,0.009,-0.023
185438,-1.144,-1.472,-9.325,-0.009,0.009,-0.023
185541,-1.135,-1.482,-9.316,-0.009,0.009,-0.023
185644,-1.14,-1.475,-9.316,-0.009,0.009,-0.023
185747,-1.128,-1.48,-9.318,-0.009,0.009,-0.023
185850,-1.14,-1.482,-9.318,-0.009,0.009,-0.023
185953,-1.137,-1.465,-9.311,-0.009,0.009,-0.023
186056,-1.137,-1.472,-9.328,-0.009,0.009,-0.023
186159,-1.125,-1.477,-9.316,-0.009,0.009,-0.023
186262,-1.137,-1.475,-9.318,-0.009,0.009,-0.023
186365,-1.132,-1.47,-9.328,-0.009,0.009,-0.022
186468,-1.137,-1.475,-9.333,-0.009,0.009,-0.023
186571,-1.137,-1.475,-9.328,-0.009,0.009,-0.023
186674,-1.135,-1.472,-9.328,-0.009,0.009,-0.023
186777,-1.128,-1.475,-9.323,-0.009,0.009,-0.023
186880,-1.137,-1.484,-9.316,-0.009,0.009,-0.023
186983,-1.137,-1.487,-9.333,-0.009,0.009,-0.023
187086,-1.142,-1.475,-9.321,-0.009,0.009,-0.023
187189,-1.137,-1.475,-9.328,-0.009,0.009,-0.022
187292,-1.137,-1.475,-9.328,-0.009,0.009,-0.023
187395,-1.13,-1.47,-9.321,-0.009,0.009,-0.023
187498,-1.13,-1.472,-9.311,-0.009,0.009,-0.023
187601,-1.137,-1.472,-9.316,-0.009,0.009,-0.023
187704,-1.135,-1.47,-9.333,-0.009,0.009,-0.023
187807,-1.13,-1.47,-9.313,-0.009,0.009,-0.023
187910,-1.137,-1.48,-9.333,-0.009,0.009,-0.023
188013,-1.13,-1.48,-9.328,-0.009,0.009,-0.023
188116,-1.137,-1.468,-9.318,-0.009,0.009,-0.023
188219,-1.144,-1.477,-9.309,-0.009,0.009,-0.023
188322,-1.135,-1.472,-9.33,-0.009,0.009,-0.022
188425,-1.14,-1.472,-9.335,-0.009,0.009,-0.023
188528,-1.135,-1.47,-9.323,-0.009,0.009,-0.023
188631,-1.14,-1.47,-9.328,-0.009,0.009,-0.023
188734,-1.137,-1.477,-9.321,-0.009,0.009,-0.023
188837,-1.14,-1.477,-9.33,-0.009,0.009,-0.023
188940,-1.128,-1.477,-9.34,-0.009,0.009,-0.023
189043,-1.14,-1.47,-9.335,-0.009,0.009,-0.023
189146,-1.135,-1.472,-9.337,-0.009,0.009,-0.023
189249,-1.144,-1.475,-9.316,-0.009,0.009,-0.023
189352,-1.13,-1.48,-9.342,-0.009,0.009,-0.023
189455,-1.135,-1.47,-9.333,-0.009,0.009,-0.023
189558,-1.135,-1.47,-9.316,-0.009,0.009,-0.023
189661,-1.147,-1.484,-9.316,-0.009,0.009,-0.023
189764,-1.147,-1.468,-9.321,-0.009,0.009,-0.023
189867,-1.142,-1.468,-9.328,-0.009,0.009,-0.023
189970,-1.135,-1.477,-9.321,-0.009,0.009,-0.022
190073,-1.132,-1.472,-9.321,-0.009,0.009,-0.023
190176,-1.144,-1.477,-9.306,-0.009,0.009,-0.023
190279,-1.144,-1.465,-9.313,-0.009,0.009,-0.022
190382,-1.149,-1.472,-9.325,-0.009,0.009,-0.023
190485,-1.142,-1.475,-9.321,-0.009,0.009,-0.023
190588,-1.137,-1.477,-9.321,-0.009,0.009,-0.023
190691,-1.142,-1.47,-9.328,-0.009,0.009,-0.023
190794,-1.135,-1.472,-9.313,-0.009,0.009,-0.023
190897,-1.137,-1.48,-9.328,-0.009,0.009,-0.023
191000,-1.137,-1.477,-9.33,-0.009,0.009,-0.023
191103,-1.144,-1.472,-9.333,-0.009,0.009,-0.023
191206,-1.13,-1.475,-9.323,-0.009,0.009,-0.023
191309,-1.142,-1.484,-9.323,-0.009,0.009,-0.023
191412,-1.142,-1.47,-9.316,-0.009,0.009,-0.023
191515,-1.14,-1.472,-9.316,-0.009,0.009,-0.023
191618,-1.13,-1.482,-9.323,-0.009,0.009,-0.023
191721,-1.144,-1.477,-9.316,-0.009,0.009,-0.023
191824,-1.142,-1.468,-9.325,-0.009,0.009,-0.023
191927,-1.13,-1.475,-9.318,-0.009,0.009,-0.023
192030,-1.132,-1.465,-9.34,-0.009,0.009,-0.023
192133,-1.142,-1.472,-9.337,-0.009,0.009,-0.023
192236,-1.14,-1.477,-9.323,-0.009,0.009,-0.023
192339,-1.14,-1.492,-9.321,-0.009,0.009,-0.023
192442,-1.132,-1.477,-9.325,-0.009,0.009,-0.023
192545,-1.142,-1.484,-9.333,-0.009,0.009,-0.023
192648,-1.144,-1.468,-9.318,-0.009,0.01,-0.023
192751,-1.135,-1.472,-9.328,-0.009,0.009,-0.023
192854,-1.149,-1.475,-9.309,-0.009,0.009,-0.023
192957,-1.14,-1.465,-9.323,-0.009,0.009,-0.023
193060,-1.132,-1.472,-9.325,-0.009,0.009,-0.023
193163,-1.135,-1.468,-9.313,-0.009,0.009,-0.023
193266,-1.137,-1.477,-9.318,-0.009,0.009,-0.023
193369,-1.125,-1.475,-9.313,-0.009,0.009,-0.023
193472,-1.147,-1.472,-9.325,-0.009,0.009,-0.023
193575,-1.14,-1.48,-9.318,-0.009,0.009,-0.023
193678,-1.14,-1.47,-9.335,-0.009,0.009,-0.023
193781,-1.144,-1.482,-9.321,-0.009,0.009,-0.023
193884,-1.137,-1.468,-9.33,-0.009,0.009,-0.023
193987,-1.135,-1.48,-9.321,-0.009,0.009,-0.023
194090,-1.142,-1.477,-9.34,-0.009,0.009,-0.023
194193,-1.132,-1.475,-9.316,-0.009,0.01,-0.023
194296,-1.132,-1.468,-9.299,-0.009,0.009,-0.023
194399,-1.14,-1.468,-9.321,-0.009,0.009,-0.023
194502,-1.13,-1.46,-9.313,-0.009,0.009,-0.023
194605,-1.132,-1.482,-9.325,-0.009,0.009,-0.022
194708,-1.135,-1.475,-9.342,-0.009,0.009,-0.023
194811,-1.142,-1.477,-9.328,-0.009,0.009,-0.023
194914,-1.142,-1.468,-9.318,-0.009,0.009,-0.022
195017,-1.132,-1.477,-9.309,-0.009,0.009,-0.023
195120,-1.135,-1.475,-9.335,-0.009,0.009,-0.023
195223,-1.142,-1.465,-9.323,-0.009,0.009,-0.023
195326,-1.135,-1.475,-9.318,-0.009,0.009,-0.023
195429,-1.137,-1.475,-9.333,-0.009,0.008,-0.023
195532,-1.144,-1.484,-9.321,-0.009,0.009,-0.023
195635,-1.137,-1.48,-9.335,-0.009,0.009,-0.023
195738,-1.14,-1.47,-9.335,-0.008,0.009,-0.023
195841,-1.147,-1.47,-9.323,-0.009,0.009,-0.023
195944,-1.137,-1.477,-9.347,-0.009,0.009,-0.023
196047,-1.147,-1.46,-9.33,-0.009,0.009,-0.023
196150,-1.132,-1.468,-9.33,-0.009,0.009,-0.023
196253,-1.149,-1.482,-9.321,-0.009,0.009,-0.023
196356,-1.13,-1.482,-9.328,-0.009,0.009,-0.022
196459,-1.132,-1.484,-9.321,-0.009,0.009,-0.023
196562,-1.14,-1.48,-9.316,-0.009,0.009,-0.023
196665,-1.14,-1.484,-9.323,-0.009,0.009,-0.023
196768,-1.137,-1.475,-9.321,-0.009,0.009,-0.023
196871,-1.137,-1.48,-9.313,-0.009,0.009,-0.023
196974,-1.128,-1.475,-9.333,-0.009,0.009,-0.023
197077,-1.144,-1.468,-9.333,-0.009,0.009,-0.023
197180,-1.142,-1.472,-9.323,-0.009,0.009,-0.023
197283,-1.132,-1.48,-9.321,-0.009,0.009,-0.023
197386,-1.135,-1.47,-9.328,-0.009,0.009,-0.023
197489,-1.135,-1.48,-9.335,-0.009,0.009,-0.023
197592,-1.132,-1.47,-9.33,-0.009,0.009,-0.023
197695,-1.132,-1.475,-9.316,-0.009,0.009,-0.023
197798,-1.135,-1.465,-9.345,-0.009,0.009,-0.023
197901,-1.137,-1.477,-9.328,-0.009,0.009,-0.023
198004,-1.137,-1.477,-9.321,-0.009,0.009,-0.023
198107,-1.137,-1.48,-9.321,-0.009,0.009,-0.023
198210,-1.137,-1.468,-9.311,-0.009,0.009,-0.023
198313,-1.142,-1.472,-9.328,-0.009,0.009,-0.022
198416,-1.137,-1.47,-9.33,-0.009,0.009,-0.023
198519,-1.142,-1.482,-9.313,-0.009,0.009,-0.023
198622,-1.135,-1.468,-9.335,-0.009,0.009,-0.023
198725,-1.137,-1.475,-9.328,-0.009,0.009,-0.023
198828,-1.135,-1.47,-9.333,-0.008,0.009,-0.023
198931,-1.135,-1.48,-9.321,-0.009,0.01,-0.023
199034,-1.132,-1.472,-9.33,-0.009,0.009,-0.023
199137,-1.147,-1.468,-9.325,-0.009,0.009,-0.023
199240,-1.137,-1.484,-9.337,-0.009,0.009,-0.023
199343,-1.137,-1.475,-9.316,-0.009,0.009,-0.023
199446,-1.137,-1.477,-9.328,-0.008,0.009,-0.023
199549,-1.125,-1.477,-9.321,-0.009,0.009,-0.023
199652,-1.13,-1.484,-9.335,-0.009,0.009,-0.022
199755,-1.137,-1.472,-9.313,-0.009,0.009,-0.023
199858,-1.137,-1.468,-9.323,-0.008,0.009,-0.023
199961,-1.132,-1.477,-9.328,-0.009,0.009,-0.024
200064,-1.14,-1.484,-9.321,-0.009,0.009,-0.023
200167,-1.135,-1.475,-9.316,-0.009,0.009,-0.023
200270,-1.137,-1.472,-9.309,-0.008,0.009,-0.023
200373,-1.13,-1.468,-9.325,-0.009,0.009,-0.023
200476,-1.14,-1.472,-9.321,-0.009,0.009,-0.023
200579,-1.123,-1.482,-9.313,-0.009,0.009,-0.023
200682,-1.137,-1.477,-9.323,-0.009,0.01,-0.023
200785,-1.135,-1.48,-9.325,-0.009,0.009,-0.023
200888,-1.135,-1.475,-9.313,-0.009,0.009,-0.023
200991,-1.14,-1.472,-9.318,-0.009,0.009,-0.023
201094,-1.135,-1.472,-9.316,-0.009,0.009,-0.023
201197,-1.14,-1.477,-9.325,-0.009,0.009,-0.023
201300,-1.135,-1.472,-9.313,-0.009,0.009,-0.023
201403,-1.135,-1.475,-9.328,-0.009,0.009,-0.023
201506,-1.132,-1.48,-9.321,-0.009,0.009,-0.023
201609,-1.132,-1.47,-9.325,-0.009,0.009,-0.023
201712,-1.135,-1.465,-9.325,-0.009,0.009,-0.023
201815,-1.135,-1.477,-9.328,-0.009,0.009,-0.023
201918,-1.144,-1.477,-9.323,-0.009,0.009,-0.023
202021,-1.137,-1.48,-9.325,-0.009,0.009,-0.023
202124,-1.13,-1.48,-9.313,-0.009,0.009,-0.023
202227,-1.14,-1.489,-9.318,-0.009,0.009,-0.023
202330,-1.142,-1.472,-9.321,-0.009,0.009,-0.023
202433,-1.142,-1.477,-9.316,-0.009,0.009,-0.023
202536,-1.152,-1.659,-9.273,0.231,-0.008,-0.042
202639,-1.144,-1.757,-9.261,0.008,0.008,-0.025
202742,-1.152,-1.743,-9.268,-0.008,0.009,-0.023
202845,-1.152,-1.76,-9.261,-0.009,0.009,-0.023
202948,-1.144,-1.748,-9.268,-0.009,0.009,-0.023
203051,-1.149,-1.753,-9.28,-0.009,0.009,-0.023
203154,-1.147,-1.757,-9.28,-0.009,0.009,-0.023
203257,-1.144,-1.76,-9.285,-0.009,0.009,-0.023
203360,-1.166,-1.76,-9.27,-0.009,0.009,-0.023
203463,-1.142,-1.757,-9.268,-0.009,0.009,-0.023
203566,-1.152,-1.75,-9.282,-0.009,0.009,-0.023
203669,-1.154,-1.765,-9.28,-0.009,0.009,-0.023
203772,-1.149,-1.753,-9.27,-0.009,0.009,-0.023
203875,-1.152,-1.757,-9.27,-0.009,0.009,-0.023
203978,-1.154,-1.762,-9.285,-0.009,0.009,-0.023
204081,-1.144,-1.769,-9.268,-0.009,0.009,-0.023
204184,-1.149,-1.762,-9.275,-0.009,0.009,-0.023
204287,-1.147,-1.762,-9.27,-0.009,0.009,-0.023
204390,-1.149,-1.753,-9.268,-0.009,0.009,-0.023
204493,-1.144,-1.762,-9.275,-0.009,0.009,-0.022
204596,-1.156,-1.762,-9.275,-0.009,0.009,-0.023
204699,-1.147,-1.755,-9.27,-0.009,0.009,-0.023
204802,-1.147,-1.753,-9.275,-0.009,0.009,-0.023
204905,-1.147,-1.76,-9.278,-0.009,0.009,-0.022
205008,-1.156,-1.767,-9.273,-0.009,0.009,-0.022
205111,-1.14,-1.757,-9.268,-0.009,0.009,-0.023
205214,-1.149,-1.753,-9.282,-0.009,0.009,-0.023
205317,-1.152,-1.75,-9.258,-0.009,0.009,-0.023
205420,-1.147,-1.755,-9.278,-0.009,0.009,-0.023
205523,-1.152,-1.757,-9.273,-0.009,0.009,-0.023
205626,-1.161,-1.76,-9.27,-0.009,0.009,-0.023
205729,-1.137,-1.769,-9.292,-0.009,0.009,-0.023
205832,-1.154,-1.757,-9.278,-0.009,0.009,-0.023
205935,-1.154,-1.772,-9.268,-0.009,0.009,-0.023
206038,-1.159,-1.757,-9.273,-0.009,0.009,-0.023
206141,-1.149,-1.762,-9.263,-0.009,0.009,-0.023
206244,-1.142,-1.757,-9.282,-0.009,0.009,-0.023
206347,-1.142,-1.755,-9.275,-0.009,0.009,-0.023
206450,-1.156,-1.762,-9.258,-0.009,0.009,-0.023
206553,-1.159,-1.762,-9.275,-0.009,0.009,-0.023
206656,-1.142,-1.755,-9.273,-0.009,0.009,-0.023
206759,-1.149,-1.755,-9.28,-0.009,0.009,-0.023
206862,-1.147,-1.757,-9.285,-0.009,0.009,-0.023
206965,-1.149,-1.762,-9.261,-0.008,0.009,-0.023
207068,-1.149,-1.76,-9.263,-0.009,0.009,-0.023
207171,-1.149,-1.76,-9.273,-0.009,0.009,-0.023
207274,-1.147,-1.755,-9.27,-0.009,0.009,-0.023
207377,-1.147,-1.762,-9.278,-0.009,0.009,-0.023
207480,-1.149,-1.745,-9.278,-0.009,0.009,-0.023
207583,-1.149,-1.753,-9.273,-0.009,0.009,-0.022
207686,-1.149,-1.75,-9.273,-0.009,0.009,-0.023
207789,-1.159,-1.757,-9.266,-0.009,0.009,-0.023
207892,-1.149,-1.76,-9.275,-0.009,0.009,-0.023
207995,-1.159,-1.75,-9.27,-0.009,0.009,-0.023
208098,-1.142,-1.753,-9.27,-0.009,0.009,-0.023
208201,-1.144,-1.76,-9.27,-0.009,0.009,-0.023
208304,-1.152,-1.757,-9.261,-0.009,0.009,-0.023
208407,-1.149,-1.765,-9.273,-0.009,0.009,-0.023
208510,-1.159,-1.762,-9.275,-0.009,0.009,-0.023
208613,-1.154,-1.755,-9.27,-0.009,0.009,-0.023
208716,-1.144,-1.76,-9.275,-0.009,0.009,-0.023
208819,-1.154,-1.755,-9.282,-0.009,0.009,-0.023
208922,-1.149,-1.748,-9.266,-0.009,0.009,-0.023
209025,-1.144,-1.757,-9.261,-0.009,0.009,-0.023
209128,-1.147,-1.757,-9.268,-0.009,0.009,-0.023
209231,-1.144,-1.748,-9.268,-0.009,0.009,-0.023
209334,-1.149,-1.757,-9.266,-0.009,0.009,-0.023
209437,-1.152,-1.765,-9.287,-0.009,0.009,-0.023
209540,-1.149,-1.76,-9.263,-0.009,0.009,-0.022
209643,-1.147,-1.748,-9.261,-0.009,0.009,-0.023
209746,-1.156,-1.753,-9.28,-0.009,0.009,-0.023
209849,-1.135,-1.75,-9.261,-0.009,0.009,-0.023
209952,-1.149,-1.745,-9.258,-0.009,0.009,-0.023
210055,-1.154,-1.755,-9.285,-0.009,0.009,-0.022
210158,-1.142,-1.753,-9.268,-0.009,0.009,-0.023
210261,-1.152,-1.76,-9.268,-0.009,0.009,-0.023
210364,-1.159,-1.76,-9.273,-0.009,0.009,-0.023
210467,-1.147,-1.765,-9.278,-0.009,0.009,-0.023
210570,-1.156,-1.753,-9.273,-0.009,0.009,-0.023
210673,-1.156,-1.755,-9.287,-0.009,0.009,-0.023
210776,-1.154,-1.755,-9.275,-0.009,0.009,-0.023
210879,-1.149,-1.765,-9.282,-0.009,0.009,-0.023
210982,-1.144,-1.753,-9.268,-0.009,0.009,-0.023
211085,-1.149,-1.757,-9.282,-0.009,0.009,-0.023
211188,-1.14,-1.757,-9.266,-0.009,0.009,-0.023
211291,-1.154,-1.753,-9.285,-0.009,0.009,-0.023
211394,-1.154,-1.753,-9.275,-0.009,0.009,-0.023
211497,-1.142,-1.76,-9.261,-0.009,0.009,-0.023
211600,-1.147,-1.757,-9.282,-0.009,0.009,-0.023
211703,-1.149,-1.76,-9.285,-0.009,0.009,-0.023
211806,-1.14,-1.75,-9.266,-0.009,0.009,-0.023
211909,-1.142,-1.748,-9.268,-0.009,0.008,-0.023
212012,-1.142,-1.76,-9.278,-0.009,0.009,-0.023
212115,-1.156,-1.757,-9.27,-0.009,0.009,-0.023
212218,-1.147,-1.762,-9.285,-0.009,0.009,-0.023
212321,-1.149,-1.757,-9.27,-0.008,0.009,-0.023
212424,-1.152,-1.755,-9.278,-0.009,0.009,-0.023
212527,-1.152,-1.762,-9.27,-0.009,0.009,-0.023
212630,-1.147,-1.76,-9.261,-0.009,0.009,-0.023
212733,-1.147,-1.76,-9.282,-0.009,0.009,-0.023
212836,-1.156,-1.755,-9.273,-0.009,0.009,-0.023
212939,-1.137,-1.75,-9.261,-0.009,0.008,-0.023
213042,-1.152,-1.762,-9.275,-0.009,0.009,-0.023
213145,-1.14,-1.76,-9.266,-0.009,0.009,-0.023
213248,-1.152,-1.76,-9.27,-0.009,0.009,-0.023
213351,-1.142,-1.76,-9.266,-0.009,0.009,-0.023
213454,-1.154,-1.762,-9.254,-0.009,0.009,-0.023
213557,-1.149,-1.757,-9.28,-0.009,0.009,-0.023
213660,-1.161,-1.753,-9.266,-0.009,0.009,-0.023
213763,-1.14,-1.757,-9.27,-0.009,0.009,-0.023
213866,-1.149,-1.767,-9.268,-0.009,0.009,-0.023
213969,-1.142,-1.757,-9.27,-0.009,0.009,-0.023
214072,-1.149,-1.741,-9.261,-0.009,0.009,-0.023
214175,-1.149,-1.753,-9.268,-0.009,0.009,-0.023
214278,-1.149,-1.762,-9.268,-0.008,0.009,-0.023
214381,-1.154,-1.765,-9.27,-0.009,0.009,-0.023
214484,-1.154,-1.748,-9.263,-0.009,0.009,-0.023
214587,-1.147,-1.76,-9.273,-0.009,0.009,-0.023
214690,-1.152,-1.76,-9.27,-0.008,0.009,-0.023
214793,-1.156,-1.748,-9.261,-0.009,0.009,-0.023
214896,-1.142,-1.753,-9.268,-0.009,0.009,-0.023
214999,-1.147,-1.743,-9.282,-0.009,0.009,-0.023
215102,-1.149,-1.745,-9.273,-0.009,0.009,-0.022
215205,-1.149,-1.762,-9.263,-0.009,0.009,-0.023
215308,-1.156,-1.753,-9.266,-0.009,0.009,-0.023
215411,-1.149,-1.75,-9.268,-0.009,0.009,-0.023
215514,-1.152,-1.76,-9.268,-0.009,0.009,-0.023
215617,-1.154,-1.762,-9.268,-0.009,0.009,-0.023
215720,-1.144,-1.755,-9.268,-0.009,0.009,-0.023
215823,-1.142,-1.762,-9.27,-0.009,0.009,-0.023
215926,-1.159,-1.755,-9.28,-0.009,0.009,-0.023
216029,-1.152,-1.757,-9.266,-0.009,0.009,-0.022
216132,-1.147,-1.745,-9.294,-0.009,0.009,-0.023
216235,-1.154,-1.75,-9.27,-0.009,0.009,-0.023
216338,-1.14,-1.753,-9.28,-0.009,0.009,-0.023
216441,-1.149,-1.76,-9.268,-0.009,0.009,-0.023
216544,-1.161,-1.765,-9.292,-0.009,0.009,-0.023
216647,-1.152,-1.755,-9.27,-0.009,0.009,-0.023
216750,-1.161,-1.762,-9.261,-0.008,0.009,-0.023
216853,-1.152,-1.76,-9.273,-0.009,0.009,-0.023
216956,-1.154,-1.765,-9.268,-0.009,0.009,-0.022
217059,-1.144,-1.76,-9.266,-0.009,0.009,-0.023
217162,-1.154,-1.765,-9.263,-0.009,0.009,-0.023
217265,-1.147,-1.745,-9.266,-0.009,0.009,-0.023
217368,-1.154,-1.755,-9.263,-0.009,0.009,-0.023
217471,-1.147,-1.75,-9.275,-0.009,0.009,-0.023
217574,-1.154,-1.762,-9.275,-0.009,0.009,-0.023
217677,-1.154,-1.757,-9.27,-0.009,0.009,-0.023
217780,-1.154,-1.76,-9.278,-0.009,0.009,-0.023
217883,-1.152,-1.76,-9.273,-0.009,0.009,-0.023
217986,-1.144,-1.743,-9.282,-0.008,0.009,-0.023
218089,-1.149,-1.76,-9.27,-0.009,0.009,-0.023
218192,-1.142,-1.762,-9.275,-0.009,0.008,-0.023
218295,-1.149,-1.757,-9.278,-0.009,0.009,-0.023
218398,-1.154,-1.755,-9.28,-0.008,0.009,-0.023
218501,-1.154,-1.762,-9.278,-0.009,0.009,-0.023
218604,-1.149,-1.755,-9.27,-0.009,0.009,-0.023
218707,-1.149,-1.755,-9.28,-0.009,0.009,-0.023
218810,-1.152,-1.757,-9.263,-0.009,0.009,-0.023
218913,-1.147,-1.762,-9.266,-0.008,0.009,-0.023
219016,-1.14,-1.765,-9.268,-0.009,0.009,-0.023
219119,-1.156,-1.755,-9.263,-0.009,0.009,-0.023
219222,-1.135,-1.75,-9.27,-0.009,0.009,-0.023
219325,-1.144,-1.762,-9.27,-0.009,0.009,-0.023
219428,-1.152,-1.757,-9.282,-0.009,0.009,-0.023
219531,-1.149,-1.757,-9.261,-0.009,0.009,-0.023
219634,-1.156,-1.767,-9.266,-0.009,0.009,-0.023
219737,-1.144,-1.753,-9.263,-0.009,0.009,-0.023
219840,-1.144,-1.76,-9.263,-0.009,0.009,-0.023
219943,-1.147,-1.762,-9.28,-0.009,0.009,-0.022
220046,-1.152,-1.75,-9.27,-0.009,0.009,-0.023
220149,-1.152,-1.748,-9.258,-0.009,0.009,-0.023
220252,-1.147,-1.765,-9.268,-0.009,0.009,-0.023
220355,-1.152,-1.753,-9.261,-0.009,0.009,-0.023
220458,-1.154,-1.755,-9.27,-0.009,0.009,-0.023
220561,-1.152,-1.755,-9.254,-0.009,0.009,-0.023
220664,-1.149,-1.76,-9.258,-0.009,0.009,-0.023
220767,-1.147,-1.755,-9.273,-0.009,0.009,-0.023
220870,-1.144,-1.767,-9.263,-0.009,0.009,-0.023
220973,-1.144,-1.76,-9.261,-0.009,0.009,-0.023
221076,-1.14,-1.76,-9.275,-0.009,0.009,-0.023
221179,-1.149,-1.757,-9.268,-0.009,0.009,-0.023
221282,-1.152,-1.76,-9.273,-0.009,0.009,-0.023
221385,-1.152,-1.755,-9.287,-0.009,0.009,-0.023
221488,-1.152,-1.76,-9.278,-0.009,0.009,-0.023
221591,-1.144,-1.765,-9.261,-0.009,0.009,-0.023
221694,-1.154,-1.75,-9.275,-0.009,0.009,-0.023
221797,-1.159,-1.753,-9.28,-0.009,0.009,-0.023
221900,-1.144,-1.76,-9.294,-0.009,0.009,-0.023
222003,-1.144,-1.76,-9.256,-0.009,0.009,-0.023
222106,-1.147,-1.75,-9.285,-0.009,0.009,-0.023
222209,-1.147,-1.755,-9.285,-0.009,0.009,-0.023
222312,-1.152,-1.757,-9.28,-0.009,0.009,-0.023
222415,-1.149,-1.769,-9.282,-0.009,0.009,-0.023
222518,-1.159,-1.753,-9.275,-0.009,0.009,-0.023
222621,-1.142,-1.753,-9.27,-0.009,0.009,-0.023
222724,-1.152,-1.75,-9.268,-0.009,0.009,-0.023
222827,-1.152,-1.757,-9.266,-0.008,0.009,-0.023
222930,-1.149,-1.757,-9.273,-0.009,0.009,-0.023
223033,-1.152,-1.757,-9.268,-0.009,0.009,-0.023
223136,-1.152,-1.757,-9.27,-0.009,0.009,-0.023
223239,-1.135,-1.762,-9.263,-0.009,0.009,-0.023
223342,-1.144,-1.75,-9.275,-0.009,0.009,-0.023
223445,-1.156,-1.753,-9.28,-0.009,0.009,-0.023
223548,-1.149,-1.76,-9.263,-0.009,0.009,-0.023
223651,-1.147,-1.765,-9.263,-0.008,0.009,-0.023
223754,-1.152,-1.755,-9.287,-0.009,0.009,-0.023
223857,-1.149,-1.75,-9.258,-0.009,0.009,-0.022
223960,-1.144,-1.762,-9.273,-0.009,0.009,-0.023
224063,-1.159,-1.757,-9.258,-0.009,0.009,-0.023
224166,-1.135,-1.762,-9.258,-0.009,0.009,-0.023
224269,-1.144,-1.755,-9.27,-0.009,0.009,-0.023
224372,-1.142,-1.757,-9.266,-0.008,0.009,-0.023
224475,-1.144,-1.765,-9.261,-0.009,0.009,-0.023
224578,-1.152,-1.755,-9.285,-0.009,0.009,-0.023
224681,-1.142,-1.765,-9.261,-0.009,0.009,-0.023
224784,-1.149,-1.753,-9.268,-0.009,0.009,-0.023
224887,-1.14,-1.755,-9.266,-0.009,0.009,-0.023
224990,-1.149,-1.757,-9.278,-0.009,0.009,-0.023
225093,-1.152,-1.753,-9.263,-0.009,0.009,-0.023
225196,-1.156,-1.765,-9.278,-0.009,0.009,-0.023
225299,-1.152,-1.76,-9.268,-0.009,0.009,-0.023
225402,-1.154,-1.76,-9.27,-0.009,0.009,-0.023
225505,-1.144,-1.755,-9.278,-0.008,0.009,-0.023
225608,-1.154,-1.76,-9.278,-0.008,0.009,-0.023
225711,-1.149,-1.755,-9.278,-0.009,0.009,-0.023
225814,-1.142,-1.755,-9.273,-0.009,0.009,-0.023
225917,-1.152,-1.757,-9.263,-0.009,0.009,-0.023
226020,-1.154,-1.753,-9.263,-0.009,0.009,-0.023
226123,-1.147,-1.757,-9.27,-0.009,0.009,-0.023
226226,-1.144,-1.75,-9.266,-0.009,0.009,-0.023
226329,-1.147,-1.753,-9.273,-0.009,0.009,-0.023
226432,-1.144,-1.755,-9.27,-0.009,0.009,-0.023
226535,-1.154,-1.765,-9.287,-0.009,0.009,-0.023
226638,-1.144,-1.757,-9.256,-0.009,0.009,-0.023
226741,-1.152,-1.76,-9.275,-0.009,0.009,-0.023
226844,-1.152,-1.757,-9.273,-0.009,0.009,-0.022
226947,-1.149,-1.757,-9.263,-0.009,0.009,-0.023
227050,-1.154,-1.757,-9.27,-0.009,0.009,-0.023
227153,-1.149,-1.757,-9.266,-0.009,0.009,-0.023
227256,-1.142,-1.755,-9.275,-0.008,0.009,-0.023
227359,-1.147,-1.75,-9.28,-0.009,0.009,-0.022
227462,-1.142,-1.76,-9.275,-0.009,0.009,-0.023
227565,-1.149,-1.76,-9.273,-0.009,0.009,-0.023
227668,-1.14,-1.765,-9.266,-0.009,0.009,-0.023
227771,-1.156,-1.767,-9.275,-0.009,0.009,-0.023
227874,-1.161,-1.757,-9.268,-0.009,0.009,-0.022
227977,-1.154,-1.748,-9.273,-0.009,0.009,-0.023
228080,-1.147,-1.757,-9.28,-0.009,0.009,-0.023
228183,-1.152,-1.757,-9.278,-0.009,0.009,-0.023
228286,-1.156,-1.762,-9.292,-0.009,0.009,-0.023
228389,-1.152,-1.762,-9.28,-0.009,0.009,-0.023
228492,-1.142,-1.755,-9.27,-0.009,0.009,-0.022
228595,-1.154,-1.757,-9.266,-0.009,0.009,-0.023
228698,-1.147,-1.765,-9.273,-0.009,0.009,-0.023
228801,-1.159,-1.753,-9.275,-0.009,0.009,-0.023
228904,-1.152,-1.755,-9.275,-0.009,0.009,-0.023
229007,-1.152,-1.753,-9.273,-0.009,0.009,-0.023
229110,-1.152,-1.76,-9.266,-0.009,0.009,-0.023
229213,-1.142,-1.75,-9.263,-0.009,0.009,-0.023
229316,-1.149,-1.76,-9.266,-0.009,0.009,-0.023
229419,-1.147,-1.757,-9.273,-0.009,0.009,-0.023
229522,-1.14,-1.757,-9.268,-0.009,0.009,-0.023
229625,-1.149,-1.755,-9.266,-0.009,0.009,-0.023
229728,-1.152,-1.762,-9.273,-0.009,0.009,-0.023
229831,-1.159,-1.765,-9.261,-0.009,0.009,-0.023
229934,-1.152,-1.765,-9.27,-0.009,0.009,-0.023
230037,-1.149,-1.76,-9.273,-0.009,0.009,-0.022
230140,-1.152,-1.762,-9.28,-0.009,0.009,-0.023
230243,-1.149,-1.76,-9.28,-0.009,0.009,-0.023
230346,-1.152,-1.753,-9.268,-0.009,0.009,-0.023
230449,-1.147,-1.757,-9.278,-0.009,0.009,-0.023
230552,-1.147,-1.75,-9.275,-0.009,0.009,-0.023
230655,-1.142,-1.767,-9.266,-0.009,0.009,-0.023
230758,-1.147,-1.755,-9.268,-0.009,0.009,-0.023
230861,-1.154,-1.765,-9.273,-0.009,0.009,-0.023
230964,-1.154,-1.755,-9.273,-0.009,0.009,-0.023
231067,-1.149,-1.753,-9.261,-0.009,0.009,-0.023
231170,-1.149,-1.76,-9.278,-0.009,0.009,-0.023
231273,-1.152,-1.755,-9.27,-0.009,0.009,-0.023
231376,-1.154,-1.765,-9.27,-0.009,0.009,-0.023
231479,-1.147,-1.755,-9.254,-0.009,0.009,-0.022
231582,-1.137,-1.753,-9.258,-0.009,0.009,-0.023
231685,-1.147,-1.753,-9.261,-0.009,0.009,-0.023
231788,-1.137,-1.767,-9.27,-0.009,0.009,-0.023
231891,-1.144,-1.753,-9.275,-0.009,0.009,-0.023
231994,-1.152,-1.755,-9.287,-0.009,0.009,-0.023
232097,-1.147,-1.755,-9.278,-0.009,0.009,-0.023
232200,-1.147,-1.76,-9.28,-0.009,0.009,-0.023
232303,-1.156,-1.753,-9.285,-0.009,0.009,-0.022
232406,-1.159,-1.75,-9.263,-0.009,0.009,-0.023
232509,-1.152,-1.76,-9.285,-0.009,0.009,-0.023
232612,-1.152,-1.769,-9.261,-0.009,0.009,-0.023
232715,-1.149,-1.753,-9.28,-0.009,0.009,-0.023
232818,-1.161,-1.755,-9.268,-0.009,0.009,-0.023
232921,-1.154,-1.755,-9.27,-0.008,0.009,-0.023
233024,-1.154,-1.765,-9.268,-0.009,0.009,-0.023
233127,-1.152,-1.755,-9.251,-0.009,0.009,-0.023
233230,-1.142,-1.755,-9.261,-0.009,0.009,-0.023
233333,-1.154,-1.75,-9.268,-0.009,0.009,-0.023
233436,-1.147,-1.753,-9.266,-0.009,0.009,-0.023
233539,-1.144,-1.76,-9.273,-0.009,0.009,-0.023
233642,-1.154,-1.755,-9.251,-0.009,0.009,-0.022
233745,-1.152,-1.755,-9.268,-0.009,0.009,-0.023
233848,-1.154,-1.76,-9.266,-0.009,0.009,-0.023
233951,-1.149,-1.757,-9.266,-0.009,0.009,-0.023
234054,-1.144,-1.753,-9.278,-0.009,0.009,-0.023
234157,-1.144,-1.757,-9.273,-0.009,0.009,-0.023
234260,-1.144,-1.75,-9.275,-0.009,0.009,-0.023
234363,-1.152,-1.757,-9.275,-0.009,0.009,-0.023
234466,-1.149,-1.745,-9.266,-0.009,0.009,-0.023
234569,-1.149,-1.748,-9.256,-0.009,0.009,-0.023
234672,-1.152,-1.76,-9.27,-0.009,0.009,-0.022
234775,-1.156,-1.757,-9.268,-0.009,0.009,-0.023
234878,-1.144,-1.757,-9.266,-0.009,0.009,-0.023
234981,-1.149,-1.76,-9.266,-0.009,0.009,-0.023
235084,-1.152,-1.748,-9.275,-0.009,0.009,-0.023
235187,-1.14,-1.75,-9.29,-0.009,0.009,-0.023
235290,-1.159,-1.76,-9.263,-0.009,0.009,-0.023
235393,-1.154,-1.745,-9.258,-0.009,0.009,-0.023
235496,-1.144,-1.753,-9.27,-0.009,0.009,-0.023
235599,-1.142,-1.757,-9.278,-0.009,0.009,-0.023
235702,-1.149,-1.767,-9.278,-0.009,0.009,-0.023
235805,-1.144,-1.762,-9.278,-0.009,0.009,-0.023
235908,-1.152,-1.755,-9.278,-0.009,0.009,-0.023
236011,-1.149,-1.757,-9.27,-0.009,0.009,-0.023
236114,-1.142,-1.757,-9.263,-0.008,0.009,-0.023
236217,-1.14,-1.757,-9.258,-0.009,0.009,-0.023
236320,-1.149,-1.757,-9.273,-0.009,0.009,-0.023
236423,-1.144,-1.755,-9.268,-0.009,0.009,-0.022
236526,-1.154,-1.757,-9.263,-0.009,0.009,-0.023
236629,-1.144,-1.75,-9.251,-0.009,0.009,-0.022
236732,-1.154,-1.757,-9.28,-0.009,0.009,-0.023
236835,-1.149,-1.75,-9.275,-0.009,0.009,-0.023
236938,-1.149,-1.757,-9.273,-0.008,0.009,-0.023
237041,-1.147,-1.753,-9.261,-0.009,0.009,-0.023
237144,-1.147,-1.75,-9.28,-0.009,0.009,-0.022
237247,-1.152,-1.767,-9.261,-0.009,0.009,-0.023
237350,-1.147,-1.755,-9.278,-0.009,0.009,-0.023
237453,-1.156,-1.757,-9.251,-0.009,0.009,-0.023
237556,-1.159,-1.76,-9.266,-0.009,0.009,-0.023
237659,-1.154,-1.755,-9.258,-0.009,0.009,-0.023
237762,-1.152,-1.765,-9.258,-0.009,0.009,-0.023
237865,-1.147,-1.753,-9.282,-0.009,0.009,-0.023
237968,-1.14,-1.75,-9.27,-0.009,0.009,-0.023
238071,-1.144,-1.755,-9.27,-0.009,0.009,-0.023
238174,-1.152,-1.748,-9.258,-0.009,0.009,-0.023
238277,-1.149,-1.762,-9.273,-0.008,0.009,-0.022
238380,-1.159,-1.753,-9.278,-0.009,0.009,-0.023
238483,-1.154,-1.75,-9.258,-0.008,0.009,-0.023
238586,-1.154,-1.753,-9.258,-0.009,0.008,-0.022
238689,-1.154,-1.762,-9.28,-0.008,0.009,-0.023
238792,-1.154,-1.76,-9.268,-0.009,0.009,-0.023
238895,-1.154,-1.755,-9.275,-0.009,0.009,-0.023
238998,-1.154,-1.753,-9.273,-0.009,0.009,-0.023
239101,-1.144,-1.755,-9.275,-0.009,0.009,-0.023
239204,-1.147,-1.765,-9.263,-0.009,0.009,-0.023
239307,-1.144,-1.762,-9.266,-0.009,0.009,-0.023
239410,-1.152,-1.769,-9.28,-0.009,0.009,-0.022
239513,-1.149,-1.757,-9.258,-0.009,0.009,-0.023
239616,-1.147,-1.745,-9.273,-0.009,0.009,-0.023
239719,-1.149,-1.748,-9.275,-0.009,0.009,-0.022
239822,-1.149,-1.762,-9.263,-0.008,0.009,-0.023
239925,-1.149,-1.757,-9.268,-0.009,0.009,-0.022
240028,-1.154,-1.755,-9.287,-0.009,0.009,-0.023
240131,-1.137,-1.762,-9.275,-0.009,0.009,-0.022
240234,-1.142,-1.76,-9.275,-0.009,0.009,-0.023
240337,-1.144,-1.762,-9.256,-0.009,0.009,-0.023
240440,-1.156,-1.757,-9.278,-0.009,0.009,-0.023
240543,-1.154,-1.762,-9.266,-0.009,0.009,-0.023
240646,-1.142,-1.762,-9.268,-0.009,0.009,-0.023
240749,-1.156,-1.755,-9.261,-0.009,0.009,-0.023
240852,-1.147,-1.757,-9.27,-0.009,0.009,-0.023
240955,-1.144,-1.757,-9.261,-0.009,0.009,-0.023
241058,-1.159,-1.75,-9.263,-0.009,0.009,-0.023
241161,-1.152,-1.76,-9.266,-0.009,0.009,-0.022
241264,-1.147,-1.76,-9.28,-0.009,0.009,-0.023
241367,-1.147,-1.76,-9.27,-0.009,0.009,-0.023
241470,-1.149,-1.748,-9.275,-0.009,0.009,-0.023
241573,-1.144,-1.757,-9.268,-0.009,0.008,-0.023
241676,-1.152,-1.762,-9.275,-0.009,0.009,-0.023
241779,-1.147,-1.757,-9.254,-0.009,0.009,-0.023
241882,-1.14,-1.748,-9.266,-0.009,0.009,-0.023
241985,-1.159,-1.757,-9.263,-0.009,0.009,-0.023
242088,-1.152,-1.76,-9.268,-0.009,0.009,-0.023
242191,-1.142,-1.767,-9.268,-0.009,0.009,-0.023
242294,-1.147,-1.745,-9.263,-0.009,0.009,-0.023
242397,-1.144,-1.757,-9.28,-0.009,0.009,-0.023
242500,-1.142,-1.803,-9.275,0.276,-0.01,-0.045
242603,-1.168,-2.028,-9.199,0.038,0.006,-0.026
242706,-1.171,-2.025,-9.225,-0.006,0.009,-0.023
242809,-1.166,-2.028,-9.215,-0.009,0.009,-0.023
242912,-1.149,-2.025,-9.21,-0.008,0.009,-0.023
243015,-1.161,-2.023,-9.225,-0.009,0.009,-0.022
243118,-1.159,-2.016,-9.218,-0.009,0.009,-0.023
243221,-1.164,-2.018,-9.215,-0.009,0.009,-0.023
243324,-1.164,-2.018,-9.21,-0.009,0.009,-0.023
243427,-1.159,-2.011,-9.222,-0.008,0.009,-0.023
243530,-1.164,-2.018,-9.21,-0.008,0.009,-0.023
243633,-1.168,-2.028,-9.225,-0.009,0.009,-0.022
243736,-1.166,-2.03,-9.232,-0.008,0.009,-0.023
243839,-1.161,-2.016,-9.23,-0.008,0.009,-0.023
243942,-1.164,-2.016,-9.222,-0.009,0.009,-0.023
244045,-1.156,-2.016,-9.199,-0.009,0.009,-0.022
244148,-1.164,-2.033,-9.222,-0.009,0.009,-0.023
244251,-1.161,-2.03,-9.213,-0.009,0.009,-0.023
244354,-1.161,-2.023,-9.215,-0.008,0.009,-0.023
244457,-1.154,-2.023,-9.215,-0.009,0.009,-0.023
244560,-1.159,-2.023,-9.21,-0.009,0.009,-0.023
244663,-1.164,-2.018,-9.218,-0.009,0.009,-0.023
244766,-1.156,-2.028,-9.218,-0.009,0.009,-0.023
244869,-1.164,-2.021,-9.23,-0.009,0.009,-0.022
244972,-1.168,-2.03,-9.21,-0.009,0.009,-0.023
245075,-1.152,-2.006,-9.21,-0.009,0.009,-0.022
245178,-1.159,-2.028,-9.213,-0.009,0.009,-0.023
245281,-1.164,-2.021,-9.213,-0.009,0.009,-0.023
245384,-1.164,-2.023,-9.222,-0.009,0.009,-0.023
245487,-1.159,-2.025,-9.22,-0.009,0.009,-0.023
245590,-1.166,-2.023,-9.208,-0.009,0.009,-0.023
245693,-1.173,-2.023,-9.218,-0.009,0.009,-0.023
245796,-1.164,-2.018,-9.213,-0.009,0.009,-0.023
245899,-1.161,-2.021,-9.213,-0.009,0.009,-0.023
246002,-1.166,-2.016,-9.21,-0.009,0.009,-0.023
246105,-1.161,-2.021,-9.225,-0.009,0.009,-0.023
246208,-1.159,-2.025,-9.213,-0.009,0.009,-0.023
246311,-1.159,-2.033,-9.213,-0.009,0.009,-0.023
246414,-1.166,-2.023,-9.22,-0.009,0.009,-0.022
246517,-1.161,-2.025,-9.196,-0.009,0.009,-0.023
246620,-1.164,-2.021,-9.215,-0.009,0.009,-0.023
246723,-1.159,-2.025,-9.21,-0.009,0.009,-0.023
246826,-1.156,-2.023,-9.21,-0.009,0.009,-0.023
246929,-1.159,-2.021,-9.215,-0.009,0.009,-0.023
247032,-1.154,-2.023,-9.206,-0.009,0.009,-0.023
247135,-1.156,-2.021,-9.218,-0.009,0.009,-0.023
247238,-1.171,-2.023,-9.225,-0.009,0.009,-0.023
247341,-1.152,-2.025,-9.218,-0.009,0.009,-0.023
247444,-1.161,-2.023,-9.213,-0.009,0.009,-0.023
247547,-1.159,-2.018,-9.218,-0.009,0.009,-0.023
247650,-1.161,-2.021,-9.218,-0.009,0.009,-0.023
247753,-1.149,-2.03,-9.201,-0.008,0.009,-0.023
247856,-1.156,-2.023,-9.215,-0.009,0.009,-0.023
247959,-1.164,-2.03,-9.222,-0.009,0.009,-0.023
248062,-1.164,-2.023,-9.208,-0.009,0.009,-0.023
248165,-1.166,-2.018,-9.218,-0.009,0.009,-0.023
248268,-1.168,-2.025,-9.218,-0.009,0.009,-0.023
248371,-1.164,-2.016,-9.218,-0.009,0.009,-0.023
248474,-1.152,-2.035,-9.218,-0.009,0.009,-0.023
248577,-1.161,-2.023,-9.22,-0.009,0.009,-0.023
248680,-1.154,-2.028,-9.215,-0.009,0.009,-0.023
248783,-1.147,-2.023,-9.215,-0.008,0.009,-0.023
248886,-1.161,-2.018,-9.208,-0.009,0.009,-0.023
248989,-1.164,-2.025,-9.206,-0.009,0.009,-0.023
249092,-1.161,-2.023,-9.218,-0.009,0.009,-0.023
249195,-1.164,-2.03,-9.215,-0.008,0.009,-0.023
249298,-1.166,-2.018,-9.22,-0.009,0.009,-0.023
249401,-1.161,-2.016,-9.218,-0.009,0.009,-0.022
249504,-1.161,-2.023,-9.222,-0.008,0.009,-0.022
249607,-1.156,-2.011,-9.208,-0.009,0.009,-0.022
249710,-1.156,-2.021,-9.213,-0.009,0.009,-0.023
249813,-1.154,-2.033,-9.201,-0.008,0.009,-0.023
249916,-1.166,-2.018,-9.208,-0.008,0.009,-0.023
250019,-1.147,-2.025,-9.206,-0.009,0.009,-0.023
250122,-1.166,-2.028,-9.22,-0.009,0.009,-0.023
250225,-1.154,-2.016,-9.222,-0.009,0.009,-0.023
250328,-1.164,-2.03,-9.206,-0.009,0.009,-0.023
250431,-1.168,-2.028,-9.213,-0.009,0.009,-0.023
250534,-1.149,-2.028,-9.23,-0.008,0.009,-0.023
250637,-1.168,-2.021,-9.213,-0.008,0.009,-0.022
250740,-1.152,-2.021,-9.206,-0.009,0.009,-0.023
250843,-1.161,-2.018,-9.215,-0.009,0.009,-0.023
250946,-1.164,-2.03,-9.222,-0.009,0.009,-0.023
251049,-1.168,-2.018,-9.213,-0.009,0.009,-0.023
251152,-1.164,-2.023,-9.215,-0.009,0.009,-0.023
251255,-1.168,-2.021,-9.232,-0.009,0.009,-0.023
251358,-1.154,-2.018,-9.213,-0.009,0.009,-0.023
251461,-1.161,-2.021,-9.218,-0.009,0.009,-0.023
251564,-1.166,-2.028,-9.218,-0.009,0.009,-0.023
251667,-1.168,-2.018,-9.21,-0.009,0.009,-0.023
251770,-1.161,-2.021,-9.201,-0.009,0.009,-0.023
251873,-1.159,-2.011,-9.206,-0.009,0.009,-0.023
251976,-1.164,-2.028,-9.215,-0.009,0.009,-0.023
252079,-1.156,-2.016,-9.225,-0.009,0.009,-0.023
252182,-1.156,-2.028,-9.203,-0.009,0.009,-0.023
252285,-1.161,-2.028,-9.215,-0.009,0.009,-0.023
252388,-1.171,-2.023,-9.201,-0.009,0.01,-0.023
252491,-1.168,-2.033,-9.22,-0.009,0.01,-0.023
252594,-1.156,-2.018,-9.22,-0.008,0.009,-0.023
252697,-1.164,-2.023,-9.22,-0.009,0.009,-0.023
252800,-1.164,-2.035,-9.213,-0.009,0.009,-0.023
252903,-1.161,-2.021,-9.208,-0.009,0.009,-0.023
253006,-1.159,-2.023,-9.21,-0.008,0.009,-0.023
253109,-1.154,-2.018,-9.222,-0.009,0.009,-0.022
253212,-1.159,-2.033,-9.208,-0.009,0.009,-0.023
253315,-1.171,-2.016,-9.208,-0.009,0.009,-0.023
253418,-1.164,-2.021,-9.225,-0.009,0.009,-0.023
253521,-1.159,-2.025,-9.225,-0.008,0.009,-0.023
253624,-1.166,-2.023,-9.218,-0.009,0.009,-0.023
253727,-1.168,-2.023,-9.222,-0.009,0.009,-0.023
253830,-1.176,-2.018,-9.199,-0.009,0.009,-0.023
253933,-1.168,-2.028,-9.215,-0.009,0.009,-0.023
254036,-1.161,-2.03,-9.22,-0.009,0.009,-0.023
254139,-1.164,-2.028,-9.218,-0.008,0.009,-0.023
254242,-1.164,-2.014,-9.218,-0.009,0.009,-0.023
254345,-1.164,-2.018,-9.208,-0.009,0.008,-0.023
254448,-1.164,-2.016,-9.215,-0.009,0.009,-0.023
254551,-1.164,-2.006,-9.213,-0.009,0.009,-0.023
254654,-1.164,-2.021,-9.218,-0.009,0.009,-0.023
254757,-1.166,-2.025,-9.208,-0.009,0.009,-0.022
254860,-1.156,-2.018,-9.232,-0.009,0.009,-0.023
254963,-1.156,-2.028,-9.201,-0.009,0.009,-0.022
255066,-1.161,-2.021,-9.206,-0.009,0.009,-0.022
255169,-1.156,-2.021,-9.21,-0.009,0.009,-0.022
255272,-1.161,-2.018,-9.21,-0.009,0.009,-0.023
255375,-1.159,-2.025,-9.218,-0.009,0.009,-0.023
255478,-1.161,-2.018,-9.22,-0.009,0.009,-0.023
255581,-1.159,-2.023,-9.215,-0.009,0.009,-0.023
255684,-1.171,-2.014,-9.21,-0.009,0.009,-0.023
255787,-1.166,-2.023,-9.213,-0.009,0.009,-0.023
255890,-1.156,-2.016,-9.199,-0.009,0.009,-0.023
255993,-1.147,-2.021,-9.208,-0.009,0.009,-0.023
256096,-1.159,-2.028,-9.218,-0.009,0.009,-0.023
256199,-1.156,-2.03,-9.242,-0.008,0.009,-0.023
256302,-1.171,-2.025,-9.227,-0.009,0.009,-0.023
256405,-1.164,-2.021,-9.206,-0.009,0.009,-0.023
256508,-1.152,-2.023,-9.218,-0.008,0.009,-0.023
256611,-1.166,-2.021,-9.218,-0.009,0.009,-0.023
256714,-1.156,-2.021,-9.222,-0.009,0.009,-0.023
256817,-1.164,-2.023,-9.208,-0.009,0.009,-0.023
256920,-1.156,-2.021,-9.218,-0.009,0.009,-0.023
257023,-1.171,-2.028,-9.218,-0.009,0.009,-0.023
257126,-1.156,-2.021,-9.222,-0.009,0.009,-0.023
257229,-1.164,-2.028,-9.227,-0.009,0.009,-0.023
257332,-1.164,-2.016,-9.213,-0.009,0.009,-0.022
257435,-1.168,-2.028,-9.213,-0.008,0.009,-0.023
257538,-1.156,-2.021,-9.22,-0.009,0.009,-0.022
257641,-1.159,-2.028,-9.225,-0.009,0.009,-0.023
257744,-1.161,-2.028,-9.213,-0.009,0.008,-0.023
257847,-1.171,-2.028,-9.23,-0.009,0.009,-0.023
257950,-1.161,-2.025,-9.208,-0.008,0.009,-0.023
258053,-1.159,-2.023,-9.222,-0.009,0.009,-0.023
258156,-1.149,-2.011,-9.222,-0.009,0.009,-0.023
258259,-1.168,-2.016,-9.215,-0.008,0.009,-0.023
258362,-1.156,-2.021,-9.227,-0.008,0.009,-0.023
258465,-1.156,-2.028,-9.21,-0.009,0.009,-0.023
258568,-1.159,-2.028,-9.187,-0.009,0.009,-0.023
258671,-1.161,-2.021,-9.225,-0.009,0.009,-0.023
258774,-1.159,-2.021,-9.218,-0.009,0.009,-0.023
258877,-1.159,-2.025,-9.21,-0.009,0.009,-0.023
258980,-1.156,-2.021,-9.208,-0.009,0.009,-0.023
259083,-1.156,-2.023,-9.232,-0.009,0.009,-0.022
259186,-1.161,-2.025,-9.199,-0.008,0.009,-0.023
259289,-1.168,-2.03,-9.218,-0.009,0.009,-0.023
259392,-1.164,-2.023,-9.21,-0.009,0.01,-0.023
259495,-1.156,-2.025,-9.222,-0.009,0.009,-0.023
259598,-1.164,-2.011,-9.22,-0.009,0.009,-0.023
259701,-1.159,-2.023,-9.22,-0.009,0.009,-0.023
259804,-1.159,-2.018,-9.213,-0.008,0.009,-0.022
259907,-1.149,-2.025,-9.213,-0.009,0.009,-0.022
260010,-1.168,-2.016,-9.22,-0.009,0.009,-0.023
260113,-1.154,-2.014,-9.21,-0.009,0.009,-0.023
260216,-1.159,-2.018,-9.21,-0.009,0.009,-0.023
260319,-1.161,-2.028,-9.22,-0.009,0.009,-0.022
260422,-1.164,-2.014,-9.22,-0.009,0.009,-0.023
260525,-1.161,-2.014,-9.21,-0.009,0.009,-0.022
260628,-1.161,-2.028,-9.232,-0.009,0.009,-0.022
260731,-1.154,-2.016,-9.208,-0.009,0.009,-0.023
260834,-1.164,-2.023,-9.21,-0.009,0.009,-0.023
260937,-1.161,-2.018,-9.21,-0.009,0.009,-0.023
261040,-1.161,-2.025,-9.227,-0.009,0.009,-0.023
261143,-1.149,-2.021,-9.206,-0.009,0.009,-0.023
261246,-1.161,-2.021,-9.218,-0.009,0.009,-0.023
261349,-1.166,-2.018,-9.208,-0.009,0.009,-0.023
261452,-1.159,-2.025,-9.213,-0.009,0.009,-0.023
261555,-1.164,-2.018,-9.218,-0.009,0.009,-0.023
261658,-1.154,-2.025,-9.227,-0.009,0.009,-0.022
261761,-1.161,-2.021,-9.21,-0.009,0.009,-0.022
261864,-1.166,-2.023,-9.213,-0.008,0.009,-0.023
261967,-1.168,-2.018,-9.215,-0.008,0.009,-0.022
262070,-1.154,-2.014,-9.227,-0.009,0.009,-0.023
262173,-1.161,-2.023,-9.206,-0.009,0.009,-0.023
262276,-1.164,-2.023,-9.227,-0.008,0.009,-0.023
262379,-1.156,-2.018,-9.215,-0.009,0.009,-0.023
262482,-1.152,-2.559,-9.189,-1.357,0.099,0.078
262585,-0.998,1.025,-9.337,-1.986,0.137,0.13
262688,-0.95,1.573,-9.347,-0.175,0.019,-0.01
262791,-0.95,1.513,-9.347,-0.015,0.009,-0.022
