time (ms),acceleration x,acceleration y,acceleration z,gyro x,gyro y,gyro z
655,-0.132,-1.568,-9.297,-0.005,0.01,-0.003
758,-0.151,-1.568,-9.301,-0.005,0.009,-0.003
861,-0.146,-1.585,-9.313,-0.006,0.009,-0.004
964,-0.132,-1.573,-9.311,-0.005,0.01,-0.003
1067,-0.134,-1.602,-9.294,-0.005,0.009,-0.003
1170,-0.144,-1.595,-9.316,-0.005,0.01,-0.004
1273,-0.141,-1.568,-9.321,-0.005,0.01,-0.004
1376,-0.134,-1.571,-9.323,-0.005,0.01,-0.003
1479,-0.136,-1.568,-9.301,-0.005,0.01,-0.003
1582,-0.117,-1.568,-9.321,-0.005,0.01,-0.003
1685,-0.134,-1.571,-9.316,-0.006,0.01,-0.004
1788,-0.139,-1.575,-9.311,-0.006,0.01,-0.003
1891,-0.136,-1.587,-9.306,-0.005,0.01,-0.004
1994,-0.127,-1.597,-9.309,-0.005,0.009,-0.003
2097,-0.146,-1.578,-9.311,-0.005,0.01,-0.003
2200,-0.146,-1.571,-9.304,-0.005,0.01,-0.003
2303,-0.146,-1.568,-9.316,-0.005,0.009,-0.004
2406,-0.144,-1.556,-9.316,-0.006,0.01,-0.004
2509,-0.144,-1.566,-9.318,-0.006,0.01,-0.004
2612,-0.132,-1.575,-9.316,-0.006,0.009,-0.004
2715,-0.139,-1.568,-9.313,-0.005,0.009,-0.003
2818,-0.136,-1.587,-9.323,-0.005,0.01,-0.003
2921,-0.136,-1.595,-9.309,-0.006,0.009,-0.003
3024,-0.134,-1.583,-9.311,-0.006,0.009,-0.003
3127,-0.139,-1.583,-9.316,-0.006,0.01,-0.004
3230,-0.141,-1.568,-9.297,-0.006,0.009,-0.004
3333,-0.151,-1.583,-9.316,-0.005,0.01,-0.004
3436,-0.146,-1.554,-9.287,-0.006,0.009,-0.004
3539,-0.153,-1.573,-9.304,-0.005,0.01,-0.003
3642,-0.146,-1.583,-9.318,-0.006,0.01,-0.003
3745,-0.132,-1.58,-9.318,-0.006,0.009,-0.003
3848,-0.146,-1.583,-9.318,-0.006,0.009,-0.003
3951,-0.136,-1.58,-9.313,-0.005,0.01,-0.003
4054,-0.144,-1.585,-9.321,-0.006,0.009,-0.004
4157,-0.146,-1.573,-9.313,-0.006,0.01,-0.003
4260,-0.136,-1.571,-9.321,-0.005,0.009,-0.003
4363,-0.148,-1.573,-9.325,-0.005,0.01,-0.003
4466,-0.136,-1.566,-9.33,-0.005,0.009,-0.003
4569,-0.129,-1.578,-9.304,-0.005,0.009,-0.003
4672,-0.139,-1.585,-9.309,-0.006,0.01,-0.004
4775,-0.144,-1.592,-9.325,-0.005,0.01,-0.003
4878,-0.144,-1.575,-9.316,-0.006,0.01,-0.003
4981,-0.136,-1.566,-9.311,-0.006,0.01,-0.003
5084,-0.139,-1.573,-9.328,-0.005,0.009,-0.003
5187,-0.144,-1.573,-9.313,-0.005,0.009,-0.003
5290,-0.139,-1.587,-9.323,-0.005,0.009,-0.003
5393,-0.132,-1.566,-9.313,-0.006,0.009,-0.003
5496,-0.129,-1.578,-9.318,-0.006,0.01,-0.003
5599,-0.148,-1.575,-9.311,-0.005,0.01,-0.003
5702,-0.136,-1.575,-9.323,-0.006,0.009,-0.003
5805,-0.139,-1.573,-9.33,-0.005,0.009,-0.003
5908,-0.134,-1.566,-9.316,-0.006,0.01,-0.003
6011,-0.141,-1.58,-9.323,-0.005,0.01,-0.003
6114,-0.141,-1.573,-9.313,-0.005,0.009,-0.003
6217,-0.141,-1.568,-9.325,-0.006,0.01,-0.003
6320,-0.136,-1.575,-9.33,-0.005,0.009,-0.004
6423,-0.146,-1.575,-9.316,-0.005,0.01,-0.003
6526,-0.139,-1.575,-9.318,-0.006,0.009,-0.003
6629,-0.132,-1.587,-9.321,-0.005,0.01,-0.004
6732,-0.136,-1.58,-9.318,-0.005,0.01,-0.003
6835,-0.139,-1.575,-9.323,-0.006,0.01,-0.003
6938,-0.139,-1.578,-9.313,-0.005,0.01,-0.003
7041,-0.139,-1.58,-9.33,-0.005,0.01,-0.003
7144,-0.146,-1.571,-9.313,-0.005,0.01,-0.003
7247,-0.144,-1.573,-9.313,-0.006,0.01,-0.004
7350,-0.134,-1.583,-9.316,-0.005,0.01,-0.003
7453,-0.139,-1.58,-9.325,-0.005,0.01,-0.003
7556,-0.139,-1.575,-9.325,-0.006,0.009,-0.003
7659,-0.136,-1.573,-9.323,-0.005,0.009,-0.004
7762,-0.151,-1.578,-9.318,-0.006,0.01,-0.003
7865,-0.144,-1.587,-9.325,-0.005,0.01,-0.003
7968,-0.148,-1.578,-9.316,-0.005,0.009,-0.003
8071,-0.139,-1.575,-9.321,-0.005,0.009,-0.003
8174,-0.146,-1.578,-9.328,-0.005,0.009,-0.003
8277,-0.134,-1.583,-9.321,-0.005,0.009,-0.003
8380,-0.139,-1.578,-9.321,-0.006,0.009,-0.003
8483,-0.136,-1.575,-9.318,-0.005,0.009,-0.003
8586,-0.139,-1.575,-9.318,-0.005,0.01,-0.003
8689,-0.136,-1.563,-9.325,-0.005,0.01,-0.003
8792,-0.139,-1.573,-9.311,-0.005,0.01,-0.004
8895,-0.146,-1.575,-9.306,-0.006,0.01,-0.003
8998,-0.141,-1.587,-9.313,-0.005,0.009,-0.003
9101,-0.132,-1.58,-9.306,-0.005,0.01,-0.004
9204,-0.139,-1.578,-9.306,-0.005,0.009,-0.003
9307,-0.146,-1.571,-9.316,-0.005,0.01,-0.003
9410,-0.134,-1.571,-9.318,-0.006,0.009,-0.003
9513,-0.144,-1.578,-9.318,-0.006,0.009,-0.003
9616,-0.136,-1.58,-9.328,-0.005,0.01,-0.003
9719,-0.148,-1.575,-9.318,-0.006,0.01,-0.003
9822,-0.141,-1.573,-9.328,-0.005,0.009,-0.003
9925,-0.141,-1.573,-9.328,-0.005,0.01,-0.003
10028,-0.136,-1.575,-9.311,-0.005,0.009,-0.003
10131,-0.136,-1.568,-9.333,-0.005,0.01,-0.003
10234,-0.141,-1.568,-9.316,-0.006,0.01,-0.004
10337,-0.134,-1.587,-9.335,-0.006,0.01,-0.003
10440,-0.144,-1.583,-9.33,-0.005,0.01,-0.003
10543,-0.129,-1.585,-9.309,-0.006,0.01,-0.003
10646,-0.129,-1.575,-9.311,-0.006,0.01,-0.003
10749,-0.134,-1.573,-9.33,-0.005,0.009,-0.003
10852,-0.136,-1.568,-9.316,-0.006,0.009,-0.004
10955,-0.124,-1.583,-9.335,-0.006,0.009,-0.003
11058,-0.139,-1.573,-9.328,-0.006,0.009,-0.003
11161,-0.139,-1.578,-9.328,-0.006,0.009,-0.003
11264,-0.148,-1.566,-9.318,-0.005,0.009,-0.003
11367,-0.146,-1.568,-9.328,-0.006,0.009,-0.003
11470,-0.129,-1.58,-9.321,-0.005,0.009,-0.003
11573,-0.129,-1.571,-9.313,-0.005,0.009,-0.003
11676,-0.136,-1.583,-9.311,-0.005,0.01,-0.003
11779,-0.134,-1.578,-9.325,-0.005,0.009,-0.003
11882,-0.148,-1.587,-9.316,-0.005,0.009,-0.003
11985,-0.136,-1.583,-9.318,-0.005,0.01,-0.003
12088,-0.136,-1.573,-9.321,-0.006,0.01,-0.003
12191,-0.132,-1.578,-9.328,-0.005,0.01,-0.003
12294,-0.144,-1.578,-9.325,-0.005,0.01,-0.004
12397,-0.144,-1.578,-9.321,-0.005,0.01,-0.003
12500,-0.139,-1.583,-9.318,-0.005,0.01,-0.003
12603,-0.136,-1.583,-9.33,-0.005,0.01,-0.003
12706,-0.139,-1.566,-9.321,-0.006,0.009,-0.004
12809,-0.141,-1.575,-9.321,-0.005,0.01,-0.004
12912,-0.139,-1.571,-9.328,-0.006,0.01,-0.003
13015,-0.134,-1.573,-9.323,-0.006,0.009,-0.003
13118,-0.146,-1.583,-9.306,-0.006,0.009,-0.003
13221,-0.141,-1.573,-9.323,-0.005,0.01,-0.003
13324,-0.134,-1.573,-9.313,-0.006,0.01,-0.003
13427,-0.139,-1.578,-9.328,-0.005,0.009,-0.003
13530,-0.141,-1.573,-9.325,-0.005,0.009,-0.003
13633,-0.141,-1.573,-9.318,-0.006,0.009,-0.004
13736,-0.134,-1.575,-9.333,-0.005,0.01,-0.004
13839,-0.136,-1.587,-9.318,-0.005,0.01,-0.003
13942,-0.134,-1.58,-9.325,-0.005,0.009,-0.003
14045,-0.139,-1.573,-9.309,-0.005,0.01,-0.003
14148,-0.136,-1.568,-9.323,-0.006,0.009,-0.003
14251,-0.132,-1.578,-9.311,-0.006,0.01,-0.003
14354,-0.127,-1.575,-9.328,-0.006,0.009,-0.003
14457,-0.148,-1.583,-9.33,-0.005,0.009,-0.003
14560,-0.139,-1.58,-9.309,-0.005,0.01,-0.003
14663,-0.136,-1.58,-9.325,-0.005,0.009,-0.003
14766,-0.139,-1.573,-9.328,-0.005,0.009,-0.003
14869,-0.148,-1.573,-9.316,-0.006,0.009,-0.003
14972,-0.144,-1.573,-9.316,-0.006,0.009,-0.003
15075,-0.136,-1.573,-9.323,-0.005,0.009,-0.004
15178,-0.134,-1.573,-9.325,-0.006,0.009,-0.003
15281,-0.144,-1.58,-9.318,-0.006,0.009,-0.003
15384,-0.129,-1.575,-9.313,-0.006,0.009,-0.004
15487,-0.151,-1.58,-9.33,-0.005,0.01,-0.003
15590,-0.144,-1.575,-9.313,-0.005,0.01,-0.003
15693,-0.134,-1.568,-9.316,-0.006,0.01,-0.003
15796,-0.127,-1.571,-9.318,-0.006,0.009,-0.003
15899,-0.146,-1.58,-9.323,-0.006,0.009,-0.003
16002,-0.139,-1.58,-9.328,-0.005,0.009,-0.003
16105,-0.132,-1.578,-9.328,-0.006,0.009,-0.004
16208,-0.136,-1.573,-9.323,-0.005,0.009,-0.003
16311,-0.136,-1.58,-9.316,-0.006,0.009,-0.004
16414,-0.129,-1.573,-9.333,-0.005,0.009,-0.003
16517,-0.134,-1.583,-9.318,-0.005,0.01,-0.003
16620,-0.148,-1.563,-9.301,-0.005,0.009,-0.003
16723,-0.132,-1.571,-9.318,-0.006,0.009,-0.003
16826,-0.134,-1.571,-9.321,-0.005,0.009,-0.003
16929,-0.141,-1.573,-9.316,-0.006,0.01,-0.003
17032,-0.139,-1.578,-9.33,-0.005,0.009,-0.004
17135,-0.146,-1.583,-9.321,-0.005,0.009,-0.004
17238,-0.136,-1.573,-9.323,-0.006,0.009,-0.004
17341,-0.136,-1.583,-9.306,-0.005,0.01,-0.003
17444,-0.151,-1.578,-9.304,-0.006,0.01,-0.003
17547,-0.148,-1.573,-9.316,-0.005,0.01,-0.003
17650,-0.139,-1.568,-9.325,-0.005,0.01,-0.003
17753,-0.132,-1.58,-9.323,-0.005,0.01,-0.003
17856,-0.148,-1.573,-9.323,-0.006,0.009,-0.003
17959,-0.134,-1.571,-9.318,-0.005,0.009,-0.003
18062,-0.136,-1.571,-9.323,-0.005,0.01,-0.004
18165,-0.136,-1.58,-9.33,-0.005,0.01,-0.003
18268,-0.134,-1.58,-9.318,-0.006,0.01,-0.003
18371,-0.146,-1.583,-9.318,-0.005,0.01,-0.004
18474,-0.146,-1.573,-9.325,-0.006,0.01,-0.003
18577,-0.141,-1.578,-9.321,-0.005,0.009,-0.003
18680,-0.136,-1.568,-9.316,-0.005,0.009,-0.004
18783,-0.139,-1.571,-9.321,-0.006,0.009,-0.003
18886,-0.139,-1.566,-9.321,-0.006,0.009,-0.003
18989,-0.148,-1.573,-9.318,-0.005,0.01,-0.003
19092,-0.151,-1.568,-9.328,-0.006,0.01,-0.003
19195,-0.146,-1.578,-9.321,-0.005,0.009,-0.003
19298,-0.144,-1.583,-9.311,-0.006,0.01,-0.003
19401,-0.141,-1.575,-9.323,-0.006,0.01,-0.004
19504,-0.136,-1.587,-9.337,-0.005,0.009,-0.003
19607,-0.136,-1.573,-9.321,-0.005,0.01,-0.003
19710,-0.141,-1.566,-9.316,-0.006,0.01,-0.003
19813,-0.141,-1.575,-9.333,-0.005,0.009,-0.003
19916,-0.139,-1.573,-9.325,-0.006,0.01,-0.003
20019,-0.129,-1.578,-9.318,-0.005,0.01,-0.003
20122,-0.144,-1.592,-9.34,-0.006,0.009,-0.004
20225,-0.139,-1.571,-9.306,-0.005,0.01,-0.003
20328,-0.144,-1.573,-9.328,-0.005,0.01,-0.003
20431,-0.139,-1.578,-9.323,-0.005,0.009,-0.003
20534,-0.146,-1.568,-9.321,-0.005,0.01,-0.003
20637,-0.146,-1.585,-9.304,-0.005,0.009,-0.003
20740,-0.139,-1.575,-9.328,-0.005,0.009,-0.003
20843,-0.136,-1.568,-9.318,-0.005,0.01,-0.003
20946,-0.148,-1.573,-9.323,-0.006,0.01,-0.004
21049,-0.146,-1.566,-9.333,-0.006,0.01,-0.004
21152,-0.144,-1.58,-9.323,-0.005,0.009,-0.003
21255,-0.139,-1.58,-9.323,-0.005,0.01,-0.004
21358,-0.141,-1.585,-9.328,-0.005,0.01,-0.003
21461,-0.139,-1.573,-9.318,-0.006,0.009,-0.004
21564,-0.136,-1.575,-9.328,-0.006,0.01,-0.003
21667,-0.139,-1.568,-9.313,-0.006,0.009,-0.003
21770,-0.146,-1.578,-9.309,-0.006,0.009,-0.003
21873,-0.141,-1.575,-9.325,-0.005,0.01,-0.003
21976,-0.141,-1.583,-9.316,-0.005,0.009,-0.003
22079,-0.148,-1.566,-9.306,-0.005,0.009,-0.003
22182,-0.134,-1.568,-9.325,-0.005,0.009,-0.003
22285,-0.139,-1.568,-9.325,-0.006,0.009,-0.003
22388,-0.139,-1.583,-9.311,-0.005,0.009,-0.003
22491,-0.132,-1.58,-9.347,-0.005,0.009,-0.003
22594,-0.148,-1.585,-9.345,-0.006,0.01,-0.004
22697,-0.136,-1.575,-9.337,-0.006,0.01,-0.004
22800,-0.132,-1.583,-9.34,-0.005,0.009,-0.004
22903,-0.136,-1.575,-9.333,-0.005,0.009,-0.003
23006,-0.132,-1.578,-9.323,-0.005,0.01,-0.003
23109,-0.144,-1.578,-9.333,-0.006,0.009,-0.004
23212,-0.127,-1.587,-9.318,-0.005,0.01,-0.003
23315,-0.129,-1.583,-9.33,-0.005,0.009,-0.003
23418,-0.136,-1.575,-9.328,-0.005,0.01,-0.004
23521,-0.141,-1.573,-9.323,-0.005,0.009,-0.003
23624,-0.148,-1.571,-9.313,-0.005,0.01,-0.003
23727,-0.139,-1.571,-9.325,-0.005,0.009,-0.003
23830,-0.146,-1.571,-9.311,-0.005,0.009,-0.004
23933,-0.139,-1.578,-9.325,-0.006,0.009,-0.003
24036,-0.146,-1.573,-9.323,-0.006,0.01,-0.003
24139,-0.141,-1.578,-9.328,-0.005,0.009,-0.004
24242,-0.156,-1.571,-9.313,-0.006,0.009,-0.003
24345,-0.136,-1.583,-9.323,-0.005,0.01,-0.003
24448,-0.139,-1.583,-9.316,-0.005,0.009,-0.003
24551,-0.144,-1.575,-9.33,-0.005,0.009,-0.003
24654,-0.136,-1.571,-9.313,-0.006,0.009,-0.003
24757,-0.139,-1.561,-9.333,-0.005,0.01,-0.003
24860,-0.141,-1.575,-9.33,-0.006,0.009,-0.003
24963,-0.129,-1.575,-9.33,-0.005,0.01,-0.003
25066,-0.141,-1.575,-9.321,-0.005,0.01,-0.003
25169,-0.151,-1.58,-9.321,-0.006,0.01,-0.004
25272,-0.134,-1.58,-9.321,-0.005,0.009,-0.003
25375,-0.132,-1.568,-9.316,-0.006,0.009,-0.003
25478,-0.144,-1.571,-9.311,-0.005,0.009,-0.004
25581,-0.139,-1.566,-9.325,-0.006,0.01,-0.003
25684,-0.132,-1.578,-9.316,-0.005,0.01,-0.003
25787,-0.146,-1.573,-9.318,-0.005,0.009,-0.003
25890,-0.141,-1.587,-9.328,-0.006,0.009,-0.004
25993,-0.136,-1.578,-9.323,-0.005,0.009,-0.003
26096,-0.141,-1.578,-9.323,-0.006,0.01,-0.003
26199,-0.144,-1.573,-9.325,-0.006,0.01,-0.003
26302,-0.136,-1.573,-9.33,-0.005,0.009,-0.004
26405,-0.139,-1.58,-9.325,-0.005,0.009,-0.004
26508,-0.132,-1.573,-9.318,-0.005,0.009,-0.003
26611,-0.151,-1.575,-9.328,-0.005,0.009,-0.003
26714,-0.141,-1.585,-9.321,-0.006,0.009,-0.003
26817,-0.132,-1.575,-9.333,-0.006,0.01,-0.003
26920,-0.132,-1.575,-9.323,-0.005,0.01,-0.003
27023,-0.139,-1.568,-9.33,-0.005,0.01,-0.003
27126,-0.141,-1.568,-9.311,-0.005,0.01,-0.004
27229,-0.132,-1.575,-9.333,-0.005,0.009,-0.004
27332,-0.141,-1.571,-9.325,-0.005,0.009,-0.003
27435,-0.134,-1.578,-9.313,-0.005,0.009,-0.004
27538,-0.134,-1.578,-9.318,-0.006,0.009,-0.004
27641,-0.141,-1.58,-9.33,-0.005,0.01,-0.004
27744,-0.141,-1.573,-9.318,-0.006,0.009,-0.003
27847,-0.146,-1.575,-9.321,-0.006,0.01,-0.003
27950,-0.134,-1.58,-9.316,-0.005,0.009,-0.003
28053,-0.144,-1.573,-9.328,-0.005,0.01,-0.003
28156,-0.141,-1.575,-9.316,-0.005,0.009,-0.004
28259,-0.141,-1.578,-9.323,-0.006,0.009,-0.004
28362,-0.132,-1.575,-9.33,-0.005,0.01,-0.003
28465,-0.148,-1.573,-9.304,-0.006,0.01,-0.003
28568,-0.136,-1.585,-9.328,-0.005,0.01,-0.004
28671,-0.144,-1.583,-9.325,-0.006,0.009,-0.004
28774,-0.134,-1.58,-9.318,-0.005,0.01,-0.003
28877,-0.141,-1.575,-9.328,-0.005,0.01,-0.003
28980,-0.136,-1.575,-9.33,-0.005,0.01,-0.003
29083,-0.134,-1.58,-9.321,-0.005,0.01,-0.003
29186,-0.144,-1.573,-9.311,-0.005,0.009,-0.003
29289,-0.139,-1.578,-9.321,-0.005,0.01,-0.004
29392,-0.136,-1.583,-9.313,-0.006,0.01,-0.003
29495,-0.134,-1.575,-9.321,-0.006,0.01,-0.004
29598,-0.139,-1.571,-9.321,-0.006,0.009,-0.003
29701,-0.146,-1.573,-9.325,-0.006,0.009,-0.003
29804,-0.139,-1.583,-9.311,-0.005,0.01,-0.003
29907,-0.136,-1.575,-9.321,-0.005,0.01,-0.003
30010,-0.136,-1.575,-9.335,-0.005,0.01,-0.003
30113,-0.141,-1.58,-9.318,-0.006,0.01,-0.004
30216,-0.136,-1.571,-9.325,-0.006,0.009,-0.004
30319,-0.139,-1.575,-9.33,-0.006,0.01,-0.003
30422,-0.146,-1.585,-9.321,-0.005,0.009,-0.003
30525,-0.129,-1.583,-9.335,-0.006,0.01,-0.004
30628,-0.144,-1.578,-9.328,-0.006,0.01,-0.003
30731,-0.146,-1.58,-9.337,-0.005,0.009,-0.003
30834,-0.151,-1.573,-9.311,-0.006,0.009,-0.004
30937,-0.139,-1.573,-9.316,-0.006,0.009,-0.003
31040,-0.141,-1.59,-9.309,-0.006,0.01,-0.003
31143,-0.139,-1.58,-9.311,-0.006,0.01,-0.003
31246,-0.146,-1.575,-9.309,-0.005,0.009,-0.003
31349,-0.136,-1.568,-9.325,-0.005,0.01,-0.003
31452,-0.141,-1.578,-9.316,-0.005,0.01,-0.003
31555,-0.139,-1.583,-9.316,-0.005,0.009,-0.003
31658,-0.144,-1.58,-9.321,-0.005,0.01,-0.003
31761,-0.141,-1.585,-9.34,-0.005,0.009,-0.004
31864,-0.132,-1.583,-9.325,-0.005,0.01,-0.004
31967,-0.136,-1.575,-9.342,-0.005,0.01,-0.003
32070,-0.141,-1.568,-9.325,-0.006,0.009,-0.003
32173,-0.139,-1.561,-9.33,-0.005,0.01,-0.003
32276,-0.139,-1.568,-9.328,-0.005,0.009,-0.003
32379,-0.136,-1.575,-9.313,-0.005,0.009,-0.003
32482,-0.139,-1.578,-9.318,-0.005,0.01,-0.003
32585,-0.132,-1.587,-9.321,-0.006,0.009,-0.003
32688,-0.153,-1.595,-9.33,-0.006,0.009,-0.004
32791,-0.146,-1.587,-9.328,-0.006,0.009,-0.004
32894,-0.141,-1.58,-9.309,-0.005,0.009,-0.004
32997,-0.136,-1.575,-9.318,-0.005,0.009,-0.004
33100,-0.141,-1.58,-9.313,-0.005,0.009,-0.004
33203,-0.146,-1.559,-9.323,-0.006,0.009,-0.003
33306,-0.144,-1.563,-9.33,-0.006,0.009,-0.003
33409,-0.132,-1.571,-9.323,-0.005,0.01,-0.004
33512,-0.139,-1.59,-9.316,-0.005,0.009,-0.004
33615,-0.146,-1.585,-9.316,-0.005,0.009,-0.003
33718,-0.146,-1.578,-9.321,-0.005,0.009,-0.003
33821,-0.148,-1.568,-9.316,-0.005,0.01,-0.003
33924,-0.132,-1.571,-9.328,-0.005,0.009,-0.003
34027,-0.132,-1.566,-9.328,-0.005,0.01,-0.003
34130,-0.129,-1.578,-9.318,-0.005,0.01,-0.003
34233,-0.141,-1.587,-9.34,-0.005,0.009,-0.003
34336,-0.151,-1.58,-9.323,-0.006,0.009,-0.004
34439,-0.144,-1.592,-9.316,-0.005,0.01,-0.003
34542,-0.144,-1.59,-9.316,-0.005,0.009,-0.003
34645,-0.124,-1.578,-9.306,-0.005,0.01,-0.003
34748,-0.134,-1.568,-9.321,-0.005,0.01,-0.003
34851,-0.132,-1.578,-9.309,-0.005,0.009,-0.003
34954,-0.141,-1.578,-9.33,-0.005,0.01,-0.003
35057,-0.141,-1.566,-9.323,-0.005,0.009,-0.003
35160,-0.148,-1.583,-9.33,-0.006,0.009,-0.004
35263,-0.136,-1.573,-9.323,-0.006,0.01,-0.003
35366,-0.141,-1.583,-9.321,-0.006,0.01,-0.003
35469,-0.158,-1.575,-9.328,-0.005,0.01,-0.004
35572,-0.153,-1.578,-9.318,-0.005,0.01,-0.003
35675,-0.136,-1.573,-9.323,-0.005,0.01,-0.003
35778,-0.127,-1.58,-9.333,-0.005,0.01,-0.003
35881,-0.136,-1.561,-9.325,-0.005,0.01,-0.003
35984,-0.141,-1.568,-9.333,-0.006,0.01,-0.004
36087,-0.141,-1.573,-9.318,-0.005,0.01,-0.003
36190,-0.132,-1.575,-9.323,-0.006,0.009,-0.003
36293,-0.141,-1.59,-9.311,-0.005,0.009,-0.003
36396,-0.139,-1.583,-9.323,-0.006,0.01,-0.003
36499,-0.141,-1.571,-9.325,-0.005,0.009,-0.003
36602,-0.136,-1.585,-9.321,-0.005,0.009,-0.003
36705,-0.127,-1.573,-9.316,-0.006,0.009,-0.003
36808,-0.136,-1.578,-9.328,-0.005,0.01,-0.003
36911,-0.144,-1.578,-9.323,-0.005,0.009,-0.003
37014,-0.151,-1.573,-9.321,-0.005,0.01,-0.003
37117,-0.127,-1.571,-9.337,-0.005,0.01,-0.003
37220,-0.134,-1.59,-9.321,-0.006,0.01,-0.003
37323,-0.139,-1.58,-9.316,-0.005,0.01,-0.003
37426,-0.144,-1.568,-9.33,-0.005,0.01,-0.003
37529,-0.136,-1.566,-9.321,-0.005,0.009,-0.003
37632,-0.141,-1.563,-9.321,-0.005,0.009,-0.003
37735,-0.139,-1.587,-9.316,-0.005,0.009,-0.004
37838,-0.136,-1.575,-9.323,-0.005,0.01,-0.003
37941,-0.144,-1.571,-9.342,-0.005,0.01,-0.003
38044,-0.146,-1.575,-9.333,-0.005,0.009,-0.003
38147,-0.127,-1.585,-9.316,-0.005,0.01,-0.003
38250,-0.134,-1.575,-9.33,-0.005,0.01,-0.003
38353,-0.139,-1.571,-9.311,-0.005,0.01,-0.003
38456,-0.148,-1.58,-9.311,-0.005,0.009,-0.004
38559,-0.141,-1.583,-9.323,-0.005,0.009,-0.003
38662,-0.139,-1.58,-9.321,-0.005,0.009,-0.003
38765,-0.136,-1.571,-9.316,-0.006,0.01,-0.004
38868,-0.136,-1.583,-9.33,-0.006,0.01,-0.004
38971,-0.146,-1.578,-9.321,-0.006,0.01,-0.003
39074,-0.136,-1.58,-9.325,-0.005,0.01,-0.004
39177,-0.134,-1.571,-9.318,-0.005,0.01,-0.003
39280,-0.151,-1.575,-9.309,-0.005,0.01,-0.003
39383,-0.144,-1.573,-9.323,-0.005,0.009,-0.003
39486,-0.139,-1.58,-9.33,-0.005,0.009,-0.003
39589,-0.136,-1.587,-9.328,-0.005,0.009,-0.003
39692,-0.136,-1.575,-9.345,-0.005,0.009,-0.004
39795,-0.151,-1.575,-9.318,-0.005,0.009,-0.003
39898,-0.146,-1.58,-9.318,-0.005,0.009,-0.003
40001,-0.134,-1.573,-9.313,-0.005,0.01,-0.003
40104,-0.132,-1.578,-9.318,-0.005,0.01,-0.003
40207,-0.139,-1.575,-9.316,-0.005,0.009,-0.003
40310,-0.139,-1.575,-9.321,-0.005,0.009,-0.003
40413,-0.146,-1.585,-9.323,-0.006,0.01,-0.003
40516,-0.134,-1.575,-9.318,-0.006,0.009,-0.004
40619,-0.139,-1.583,-9.313,-0.005,0.01,-0.004
40722,-0.139,-1.566,-9.316,-0.005,0.01,-0.004
40825,-0.144,-1.583,-9.33,-0.005,0.01,-0.003
40928,-0.139,-1.583,-9.309,-0.006,0.009,-0.004
41031,-0.134,-1.583,-9.318,-0.005,0.01,-0.004
41134,-0.151,-1.592,-9.318,-0.005,0.01,-0.003
41237,-0.139,-1.58,-9.318,-0.006,0.01,-0.003
41340,-0.134,-1.571,-9.33,-0.006,0.009,-0.003
41443,-0.129,-1.583,-9.306,-0.005,0.01,-0.003
41546,-0.139,-1.568,-9.323,-0.005,0.01,-0.004
41649,-0.141,-1.571,-9.325,-0.006,0.01,-0.003
41752,-0.141,-1.573,-9.311,-0.005,0.009,-0.003
41855,-0.136,-1.585,-9.337,-0.005,0.01,-0.003
41958,-0.134,-1.583,-9.335,-0.005,0.009,-0.003
42061,-0.144,-1.585,-9.306,-0.005,0.01,-0.003
42164,-0.139,-1.578,-9.321,-0.005,0.009,-0.004
42267,-0.141,-1.585,-9.323,-0.005,0.009,-0.004
42370,-0.141,-1.575,-9.304,-0.006,0.01,-0.003
42473,-0.132,-1.578,-9.316,-0.005,0.01,-0.004
42576,-0.134,-1.583,-9.313,-0.006,0.01,-0.003
42679,-0.144,-1.571,-9.33,-0.006,0.01,-0.003
42782,-0.127,-1.585,-9.337,-0.005,0.01,-0.003
42885,-0.139,-1.566,-9.316,-0.005,0.01,-0.003
42988,-0.144,-1.585,-9.309,-0.005,0.01,-0.003
43091,-0.136,-1.592,-9.33,-0.005,0.01,-0.003
43194,-0.139,-1.573,-9.313,-0.005,0.009,-0.003
43297,-0.139,-1.563,-9.321,-0.006,0.009,-0.004
43400,-0.139,-1.578,-9.321,-0.005,0.01,-0.003
43503,-0.136,-1.573,-9.323,-0.006,0.009,-0.003
43606,-0.146,-1.571,-9.337,-0.006,0.009,-0.003
43709,-0.136,-1.561,-9.309,-0.005,0.009,-0.003
43812,-0.139,-1.573,-9.321,-0.006,0.01,-0.003
43915,-0.139,-1.58,-9.306,-0.005,0.01,-0.003
44018,-0.144,-1.592,-9.304,-0.006,0.01,-0.003
44121,-0.136,-1.58,-9.325,-0.005,0.009,-0.003
44224,-0.151,-1.585,-9.318,-0.005,0.01,-0.004
44327,-0.141,-1.578,-9.33,-0.005,0.009,-0.003
44430,-0.139,-1.573,-9.309,-0.006,0.009,-0.003
44533,-0.139,-1.571,-9.316,-0.006,0.01,-0.003
44636,-0.141,-1.563,-9.306,-0.005,0.009,-0.003
44739,-0.136,-1.583,-9.301,-0.005,0.01,-0.003
44842,-0.134,-1.585,-9.337,-0.006,0.01,-0.003
44945,-0.139,-1.58,-9.313,-0.005,0.009,-0.003
45048,-0.146,-1.573,-9.316,-0.005,0.01,-0.004
45151,-0.144,-1.563,-9.311,-0.005,0.009,-0.003
45254,-0.144,-1.578,-9.337,-0.005,0.01,-0.003
45357,-0.136,-1.573,-9.333,-0.005,0.01,-0.003
45460,-0.136,-1.58,-9.311,-0.006,0.01,-0.003
45563,-0.134,-1.58,-9.328,-0.005,0.01,-0.004
45666,-0.139,-1.573,-9.325,-0.006,0.009,-0.003
45769,-0.144,-1.571,-9.321,-0.005,0.009,-0.003
45872,-0.144,-1.575,-9.309,-0.006,0.01,-0.003
45975,-0.139,-1.575,-9.323,-0.006,0.009,-0.003
46078,-0.132,-1.573,-9.318,-0.005,0.009,-0.003
46181,-0.141,-1.568,-9.328,-0.005,0.01,-0.003
46284,-0.136,-1.578,-9.335,-0.005,0.009,-0.003
46387,-0.136,-1.58,-9.335,-0.005,0.009,-0.003
46490,-0.136,-1.585,-9.328,-0.006,0.009,-0.003
46593,-0.134,-1.578,-9.325,-0.006,0.009,-0.003
46696,-0.136,-1.578,-9.311,-0.005,0.009,-0.003
46799,-0.139,-1.578,-9.321,-0.005,0.01,-0.003
46902,-0.134,-1.575,-9.306,-0.006,0.01,-0.003
47005,-0.148,-1.571,-9.309,-0.006,0.01,-0.003
47108,-0.144,-1.578,-9.321,-0.005,0.01,-0.004
47211,-0.136,-1.575,-9.333,-0.006,0.009,-0.003
47314,-0.144,-1.575,-9.325,-0.006,0.009,-0.003
47417,-0.141,-1.578,-9.309,-0.005,0.01,-0.004
47520,-0.136,-1.578,-9.323,-0.005,0.01,-0.004
47623,-0.139,-1.58,-9.318,-0.005,0.01,-0.003
47726,-0.136,-1.575,-9.328,-0.006,0.01,-0.004
47829,-0.141,-1.585,-9.323,-0.005,0.009,-0.004
47932,-0.139,-1.568,-9.313,-0.005,0.009,-0.003
48035,-0.144,-1.578,-9.318,-0.005,0.01,-0.003
48138,-0.134,-1.568,-9.313,-0.005,0.009,-0.003
48241,-0.136,-1.583,-9.323,-0.005,0.01,-0.003
48344,-0.127,-1.571,-9.337,-0.006,0.009,-0.003
48447,-0.148,-1.587,-9.316,-0.006,0.009,-0.003
48550,-0.132,-1.568,-9.311,-0.005,0.01,-0.003
48653,-0.139,-1.575,-9.33,-0.005,0.009,-0.003
48756,-0.136,-1.571,-9.325,-0.005,0.01,-0.003
48859,-0.141,-1.568,-9.33,-0.005,0.01,-0.003
48962,-0.148,-1.58,-9.323,-0.006,0.01,-0.003
49065,-0.139,-1.583,-9.33,-0.005,0.01,-0.003
49168,-0.139,-1.583,-9.33,-0.005,0.009,-0.003
49271,-0.134,-1.575,-9.316,-0.006,0.01,-0.003
49374,-0.134,-1.566,-9.309,-0.005,0.009,-0.003
49477,-0.134,-1.573,-9.318,-0.005,0.01,-0.003
49580,-0.144,-1.585,-9.321,-0.005,0.009,-0.003
49683,-0.136,-1.587,-9.325,-0.005,0.01,-0.003
49786,-0.136,-1.573,-9.323,-0.005,0.01,-0.003
49889,-0.141,-1.575,-9.318,-0.005,0.01,-0.003
49992,-0.134,-1.58,-9.318,-0.006,0.01,-0.004
50095,-0.136,-1.575,-9.297,-0.005,0.01,-0.003
50198,-0.139,-1.571,-9.309,-0.006,0.01,-0.003
50301,-0.139,-1.573,-9.328,-0.005,0.01,-0.003
50404,-0.136,-1.583,-9.325,-0.006,0.01,-0.003
50507,-0.141,-1.578,-9.316,-0.006,0.01,-0.003
50610,-0.136,-1.575,-9.321,-0.005,0.01,-0.003
50713,-0.139,-1.571,-9.333,-0.005,0.009,-0.003
50816,-0.146,-1.566,-9.337,-0.005,0.009,-0.003
50919,-0.146,-1.578,-9.33,-0.005,0.01,-0.004
51022,-0.141,-1.58,-9.313,-0.006,0.01,-0.003
51125,-0.136,-1.568,-9.335,-0.005,0.01,-0.003
51228,-0.136,-1.573,-9.318,-0.006,0.01,-0.003
51331,-0.132,-1.583,-9.299,-0.005,0.01,-0.004
51434,-0.139,-1.573,-9.328,-0.006,0.01,-0.003
51537,-0.148,-1.58,-9.321,-0.005,0.009,-0.004
51640,-0.134,-1.583,-9.313,-0.005,0.01,-0.004
51743,-0.139,-1.573,-9.323,-0.005,0.01,-0.004
51846,-0.151,-1.575,-9.318,-0.005,0.009,-0.003
51949,-0.139,-1.571,-9.313,-0.005,0.009,-0.004
52052,-0.146,-1.573,-9.325,-0.005,0.01,-0.004
52155,-0.141,-1.575,-9.316,-0.006,0.009,-0.004
52258,-0.139,-1.573,-9.321,-0.005,0.01,-0.004
52361,-0.132,-1.585,-9.316,-0.006,0.01,-0.003
52464,-0.129,-1.568,-9.323,-0.005,0.01,-0.003
52567,-0.141,-1.58,-9.328,-0.005,0.01,-0.003
52670,-0.148,-1.575,-9.328,-0.005,0.009,-0.003
52773,-0.144,-1.568,-9.318,-0.006,0.01,-0.003
52876,-0.146,-1.58,-9.321,-0.005,0.01,-0.003
52979,-0.136,-1.58,-9.323,-0.005,0.01,-0.004
53082,-0.139,-1.571,-9.328,-0.006,0.009,-0.003
53185,-0.141,-1.575,-9.325,-0.005,0.009,-0.004
53288,-0.148,-1.563,-9.316,-0.006,0.01,-0.004
53391,-0.151,-1.575,-9.33,-0.005,0.01,-0.004
53494,-0.141,-1.583,-9.321,-0.005,0.009,-0.003
53597,-0.146,-1.578,-9.323,-0.006,0.01,-0.003
53700,-0.141,-1.585,-9.333,-0.005,0.01,-0.004
53803,-0.141,-1.585,-9.318,-0.005,0.009,-0.004
53906,-0.146,-1.571,-9.306,-0.006,0.01,-0.004
54009,-0.141,-1.568,-9.318,-0.005,0.01,-0.003
54112,-0.141,-1.571,-9.321,-0.005,0.01,-0.003
54215,-0.134,-1.571,-9.313,-0.006,0.009,-0.003
54318,-0.148,-1.563,-9.321,-0.005,0.01,-0.004
54421,-0.136,-1.578,-9.323,-0.005,0.01,-0.003
54524,-0.136,-1.58,-9.328,-0.006,0.009,-0.003
54627,-0.153,-1.587,-9.311,-0.006,0.01,-0.003
54730,-0.141,-1.585,-9.325,-0.005,0.01,-0.004
54833,-0.148,-1.578,-9.321,-0.006,0.01,-0.003
54936,-0.136,-1.575,-9.335,-0.006,0.01,-0.004
55039,-0.134,-1.566,-9.306,-0.006,0.01,-0.003
55142,-0.136,-1.568,-9.33,-0.006,0.01,-0.004
55245,-0.139,-1.563,-9.313,-0.005,0.01,-0.004
55348,-0.151,-1.578,-9.318,-0.006,0.01,-0.003
55451,-0.144,-1.58,-9.328,-0.005,0.01,-0.003
55554,-0.139,-1.585,-9.318,-0.005,0.01,-0.003
55657,-0.129,-1.573,-9.333,-0.006,0.009,-0.003
55760,-0.136,-1.59,-9.316,-0.005,0.01,-0.003
55863,-0.144,-1.571,-9.325,-0.005,0.01,-0.003
55966,-0.136,-1.563,-9.33,-0.005,0.01,-0.003
56069,-0.139,-1.571,-9.311,-0.005,0.01,-0.004
56172,-0.144,-1.575,-9.33,-0.006,0.01,-0.003
56275,-0.136,-1.571,-9.316,-0.005,0.01,-0.003
56378,-0.148,-1.575,-9.325,-0.005,0.01,-0.003
56481,-0.144,-1.58,-9.311,-0.005,0.01,-0.003
56584,-0.144,-1.58,-9.301,-0.005,0.01,-0.003
56687,-0.139,-1.583,-9.325,-0.005,0.009,-0.004
56790,-0.134,-1.568,-9.316,-0.006,0.01,-0.003
56893,-0.141,-1.585,-9.325,-0.006,0.01,-0.003
56996,-0.148,-1.578,-9.309,-0.006,0.01,-0.003
57099,-0.156,-1.575,-9.333,-0.005,0.009,-0.003
57202,-0.139,-1.566,-9.309,-0.005,0.01,-0.003
57305,-0.141,-1.578,-9.323,-0.006,0.01,-0.003
57408,-0.136,-1.58,-9.311,-0.006,0.01,-0.003
57511,-0.141,-1.571,-9.321,-0.005,0.009,-0.003
57614,-0.144,-1.578,-9.313,-0.005,0.01,-0.003
57717,-0.144,-1.585,-9.333,-0.006,0.01,-0.004
57820,-0.158,-1.583,-9.318,-0.006,0.009,-0.004
57923,-0.146,-1.575,-9.328,-0.005,0.01,-0.003
58026,-0.146,-1.566,-9.325,-0.005,0.01,-0.004
58129,-0.144,-1.571,-9.323,-0.005,0.01,-0.003
58232,-0.134,-1.578,-9.316,-0.005,0.01,-0.003
58335,-0.139,-1.573,-9.316,-0.005,0.01,-0.003
58438,-0.148,-1.571,-9.321,-0.005,0.009,-0.003
58541,-0.139,-1.587,-9.321,-0.005,0.009,-0.003
58644,-0.144,-1.575,-9.321,-0.006,0.01,-0.004
58747,-0.139,-1.583,-9.321,-0.005,0.01,-0.004
58850,-0.136,-1.583,-9.313,-0.006,0.01,-0.004
58953,-0.144,-1.578,-9.318,-0.006,0.01,-0.003
59056,-0.148,-1.575,-9.323,-0.005,0.01,-0.003
59159,-0.136,-1.578,-9.318,-0.006,0.01,-0.004
59262,-0.141,-1.556,-9.318,-0.005,0.009,-0.003
59365,-0.146,-1.566,-9.333,-0.006,0.01,-0.004
59468,-0.139,-1.578,-9.321,-0.005,0.01,-0.003
59571,-0.139,-1.573,-9.325,-0.005,0.01,-0.003
59674,-0.139,-1.571,-9.323,-0.005,0.01,-0.003
59777,-0.134,-1.578,-9.325,-0.005,0.009,-0.004
59880,-0.141,-1.568,-9.325,-0.006,0.009,-0.004
59983,-0.144,-1.575,-9.328,-0.006,0.009,-0.003
60086,-0.139,-1.563,-9.311,-0.005,0.009,-0.003
60189,-0.134,-1.585,-9.333,-0.006,0.009,-0.004
60292,-0.136,-1.575,-9.318,-0.005,0.01,-0.003
60395,-0.139,-1.583,-9.306,-0.005,0.01,-0.004
60498,-0.134,-1.571,-9.318,-0.006,0.01,-0.003
60601,-0.134,-1.583,-9.316,-0.006,0.01,-0.003
60704,-0.139,-1.575,-9.323,-0.006,0.01,-0.003
60807,-0.144,-1.575,-9.316,-0.005,0.01,-0.003
60910,-0.139,-1.578,-9.323,-0.006,0.01,-0.003
61013,-0.134,-1.58,-9.323,-0.006,0.009,-0.004
61116,-0.129,-1.575,-9.34,-0.006,0.009,-0.003
61219,-0.132,-1.578,-9.311,-0.006,0.01,-0.003
61322,-0.148,-1.568,-9.325,-0.005,0.01,-0.003
61425,-0.134,-1.583,-9.309,-0.006,0.009,-0.004
61528,-0.132,-1.578,-9.309,-0.005,0.01,-0.003
61631,-0.136,-1.58,-9.321,-0.005,0.01,-0.003
61734,-0.144,-1.566,-9.311,-0.006,0.009,-0.004
61837,-0.139,-1.583,-9.323,-0.006,0.009,-0.003
61940,-0.136,-1.575,-9.335,-0.006,0.009,-0.003
62043,-0.144,-1.575,-9.318,-0.006,0.009,-0.004
62146,-0.136,-1.578,-9.313,-0.006,0.01,-0.004
62249,-0.144,-1.583,-9.328,-0.006,0.009,-0.003
62352,-0.146,-1.58,-9.318,-0.006,0.009,-0.004
62455,-0.148,-1.58,-9.313,-0.006,0.009,-0.003
62558,-0.139,-1.575,-9.309,-0.006,0.01,-0.003
62661,-0.136,-1.563,-9.316,-0.006,0.01,-0.003
62764,-0.132,-1.573,-9.328,-0.005,0.01,-0.003
62867,-0.136,-1.578,-9.313,-0.005,0.01,-0.003
62970,-0.139,-1.563,-9.325,-0.005,0.009,-0.003
63073,-0.136,-1.571,-9.316,-0.005,0.01,-0.003
63176,-0.141,-1.578,-9.316,-0.005,0.01,-0.003
63279,-0.134,-1.573,-9.309,-0.005,0.01,-0.004
63382,-0.139,-1.585,-9.316,-0.006,0.009,-0.004
63485,-0.129,-1.575,-9.299,-0.006,0.01,-0.004
63588,-0.144,-1.58,-9.311,-0.005,0.01,-0.003
63691,-0.136,-1.573,-9.309,-0.005,0.01,-0.003
63794,-0.146,-1.583,-9.311,-0.006,0.009,-0.003
63897,-0.132,-1.578,-9.313,-0.006,0.01,-0.003
64000,-0.136,-1.583,-9.321,-0.005,0.01,-0.003
64103,-0.141,-1.58,-9.323,-0.005,0.01,-0.003
64206,-0.136,-1.575,-9.316,-0.005,0.009,-0.003
64309,-0.139,-1.58,-9.318,-0.005,0.009,-0.004
64412,-0.146,-1.578,-9.33,-0.005,0.01,-0.004
64515,-0.132,-1.578,-9.325,-0.006,0.009,-0.004
64618,-0.141,-1.578,-9.299,-0.006,0.009,-0.004
64721,-0.136,-1.568,-9.304,-0.005,0.01,-0.003
64824,-0.134,-1.571,-9.292,-0.005,0.009,-0.003
64927,-0.139,-1.568,-9.309,-0.006,0.009,-0.004
65030,-0.148,-1.58,-9.316,-0.006,0.009,-0.004
65133,-0.136,-1.575,-9.33,-0.005,0.01,-0.003
65236,-0.144,-1.583,-9.321,-0.006,0.01,-0.003
65339,-0.134,-1.587,-9.261,-0.006,0.007,-0.003
65442,-0.136,-1.571,-9.309,-0.006,0.009,-0.003
65545,-0.132,-1.578,-9.323,-0.006,0.009,-0.003
65648,-0.132,-1.568,-9.323,-0.006,0.009,-0.003
65751,-0.134,-1.566,-9.304,-0.006,0.009,-0.003
65854,-0.148,-1.573,-9.318,-0.005,0.01,-0.003
65957,-0.132,-1.568,-9.321,-0.005,0.01,-0.003
66060,-0.144,-1.58,-9.323,-0.005,0.009,-0.003
66163,-0.134,-1.563,-9.325,-0.006,0.01,-0.003
66266,-0.146,-1.578,-9.325,-0.005,0.01,-0.004
66369,-0.139,-1.585,-9.321,-0.006,0.01,-0.003
66472,-0.148,-1.583,-9.328,-0.005,0.009,-0.003
66575,-0.134,-1.59,-9.313,-0.006,0.009,-0.003
66678,-0.146,-1.583,-9.345,-0.005,0.01,-0.003
66781,-0.136,-1.58,-9.323,-0.005,0.01,-0.003
66884,-0.134,-1.578,-9.328,-0.006,0.01,-0.003
66987,-0.127,-1.587,-9.321,-0.005,0.009,-0.003
67090,-0.134,-1.573,-9.325,-0.005,0.009,-0.003
67193,-0.136,-1.571,-9.306,-0.005,0.009,-0.004
67296,-0.132,-1.583,-9.313,-0.005,0.01,-0.003
67399,-0.124,-1.575,-9.311,-0.005,0.01,-0.003
67502,-0.146,-1.58,-9.297,-0.005,0.01,-0.003
67605,-0.141,-1.58,-9.318,-0.005,0.01,-0.003
67708,-0.141,-1.578,-9.318,-0.005,0.009,-0.004
67811,-0.141,-1.571,-9.33,-0.006,0.01,-0.003
67914,-0.144,-1.583,-9.335,-0.005,0.01,-0.004
68017,-0.146,-1.573,-9.316,-0.005,0.009,-0.004
68120,-0.127,-1.578,-9.333,-0.005,0.01,-0.003
68223,-0.139,-1.578,-9.318,-0.005,0.01,-0.003
68326,-0.139,-1.578,-9.316,-0.006,0.009,-0.003
68429,-0.132,-1.571,-9.335,-0.005,0.009,-0.003
68532,-0.141,-1.575,-9.321,-0.006,0.009,-0.003
68635,-0.134,-1.573,-9.311,-0.005,0.009,-0.003
68738,-0.132,-1.587,-9.309,-0.006,0.009,-0.003
68841,-0.144,-1.58,-9.33,-0.005,0.009,-0.003
68944,-0.146,-1.573,-9.33,-0.005,0.009,-0.003
69047,-0.136,-1.578,-9.325,-0.005,0.01,-0.003
69150,-0.129,-1.566,-9.318,-0.005,0.01,-0.003
69253,-0.136,-1.583,-9.316,-0.005,0.009,-0.004
69356,-0.148,-1.587,-9.313,-0.005,0.009,-0.003
69459,-0.134,-1.585,-9.335,-0.005,0.01,-0.003
69562,-0.139,-1.575,-9.335,-0.005,0.01,-0.004
69665,-0.136,-1.587,-9.316,-0.005,0.009,-0.003
69768,-0.136,-1.583,-9.33,-0.005,0.009,-0.003
69871,-0.141,-1.58,-9.313,-0.006,0.01,-0.003
69974,-0.144,-1.578,-9.33,-0.005,0.009,-0.003
70077,-0.153,-1.585,-9.328,-0.006,0.009,-0.004
70180,-0.148,-1.585,-9.318,-0.005,0.009,-0.004
70283,-0.139,-1.583,-9.328,-0.005,0.01,-0.003
70386,-0.134,-1.58,-9.321,-0.006,0.009,-0.003
70489,-0.144,-1.578,-9.325,-0.005,0.009,-0.003
70592,-0.136,-1.587,-9.313,-0.006,0.01,-0.003
70695,-0.141,-1.573,-9.313,-0.006,0.01,-0.003
70798,-0.134,-1.583,-9.321,-0.006,0.01,-0.003
70901,-0.139,-1.578,-9.325,-0.006,0.01,-0.004
71004,-0.136,-1.583,-9.335,-0.005,0.01,-0.003
71107,-0.144,-1.585,-9.318,-0.005,0.01,-0.003
71210,-0.134,-1.583,-9.33,-0.005,0.01,-0.003
71313,-0.141,-1.58,-9.34,-0.005,0.009,-0.003
71416,-0.136,-1.58,-9.328,-0.005,0.009,-0.003
71519,-0.136,-1.583,-9.33,-0.005,0.01,-0.003
71622,-0.144,-1.575,-9.325,-0.005,0.009,-0.003
71725,-0.134,-1.592,-9.316,-0.006,0.01,-0.003
71828,-0.132,-1.592,-9.309,-0.006,0.009,-0.003
71931,-0.129,-1.583,-9.335,-0.006,0.009,-0.003
72034,-0.134,-1.573,-9.321,-0.006,0.01,-0.003
72137,-0.136,-1.585,-9.323,-0.005,0.01,-0.003
72240,-0.139,-1.585,-9.323,-0.005,0.01,-0.004
72343,-0.141,-1.585,-9.316,-0.005,0.01,-0.003
72446,-0.136,-1.583,-9.313,-0.006,0.009,-0.003
72549,-0.136,-1.578,-9.33,-0.006,0.009,-0.003
72652,-0.139,-1.583,-9.321,-0.005,0.01,-0.003
72755,-0.139,-1.578,-9.316,-0.005,0.009,-0.003
72858,-0.129,-1.58,-9.325,-0.006,0.009,-0.004
72961,-0.136,-1.585,-9.325,-0.005,0.009,-0.003
73064,-0.139,-1.573,-9.318,-0.006,0.009,-0.003
73167,-0.144,-1.58,-9.33,-0.006,0.01,-0.003
73270,-0.139,-1.575,-9.335,-0.006,0.009,-0.003
73373,-0.134,-1.578,-9.328,-0.005,0.009,-0.003
73476,-0.139,-1.578,-9.316,-0.006,0.01,-0.003
73579,-0.132,-1.573,-9.309,-0.005,0.009,-0.003
73682,-0.134,-1.585,-9.325,-0.005,0.009,-0.003
73785,-0.136,-1.58,-9.311,-0.005,0.01,-0.003
73888,-0.136,-1.575,-9.316,-0.005,0.01,-0.003
73991,-0.141,-1.587,-9.321,-0.006,0.01,-0.003
74094,-0.144,-1.575,-9.328,-0.006,0.01,-0.003
74197,-0.139,-1.58,-9.321,-0.005,0.01,-0.003
74300,-0.151,-1.568,-9.313,-0.005,0.009,-0.003
74403,-0.132,-1.573,-9.33,-0.006,0.009,-0.003
74506,-0.144,-1.571,-9.299,-0.006,0.009,-0.004
74609,-0.144,-1.58,-9.309,-0.006,0.009,-0.003
74712,-0.132,-1.58,-9.335,-0.005,0.009,-0.003
74815,-0.132,-1.571,-9.328,-0.005,0.009,-0.003
74918,-0.148,-1.578,-9.309,-0.006,0.009,-0.003
75021,-0.141,-1.568,-9.33,-0.005,0.009,-0.003
75124,-0.148,-1.568,-9.321,-0.005,0.009,-0.003
75227,-0.134,-1.587,-9.316,-0.006,0.009,-0.003
75330,-0.134,-1.587,-9.318,-0.005,0.01,-0.004
75433,-0.141,-1.58,-9.313,-0.006,0.01,-0.003
75536,-0.153,-1.583,-9.316,-0.005,0.009,-0.003
75639,-0.153,-1.573,-9.321,-0.005,0.01,-0.004
75742,-0.132,-1.578,-9.335,-0.006,0.009,-0.003
75845,-0.132,-1.573,-9.335,-0.006,0.009,-0.003
75948,-0.134,-1.563,-9.323,-0.005,0.01,-0.003
76051,-0.136,-1.58,-9.323,-0.005,0.01,-0.003
76154,-0.134,-1.573,-9.313,-0.005,0.01,-0.003
76257,-0.139,-1.575,-9.311,-0.006,0.01,-0.003
76360,-0.141,-1.58,-9.33,-0.006,0.009,-0.003
76463,-0.136,-1.578,-9.297,-0.005,0.009,-0.003
76566,-0.141,-1.575,-9.318,-0.005,0.01,-0.003
76669,-0.144,-1.575,-9.328,-0.005,0.01,-0.004
76772,-0.151,-1.583,-9.328,-0.006,0.009,-0.004
76875,-0.141,-1.575,-9.337,-0.006,0.009,-0.003
76978,-0.144,-1.571,-9.306,-0.006,0.009,-0.004
77081,-0.146,-1.58,-9.309,-0.005,0.01,-0.003
77184,-0.129,-1.566,-9.311,-0.005,0.01,-0.004
77287,-0.141,-1.575,-9.313,-0.005,0.009,-0.003
77390,-0.148,-1.575,-9.323,-0.005,0.01,-0.004
77493,-0.139,-1.573,-9.316,-0.006,0.009,-0.004
77596,-0.136,-1.573,-9.318,-0.005,0.01,-0.003
77699,-0.136,-1.575,-9.323,-0.006,0.01,-0.004
77802,-0.141,-1.587,-9.328,-0.006,0.009,-0.003
77905,-0.141,-1.587,-9.323,-0.006,0.01,-0.003
78008,-0.136,-1.585,-9.328,-0.006,0.01,-0.003
78111,-0.134,-1.58,-9.33,-0.005,0.009,-0.003
78214,-0.144,-1.578,-9.33,-0.005,0.009,-0.004
78317,-0.144,-1.566,-9.321,-0.005,0.01,-0.003
78420,-0.146,-1.58,-9.328,-0.005,0.01,-0.004
78523,-0.139,-1.575,-9.323,-0.005,0.009,-0.003
78626,-0.136,-1.58,-9.321,-0.006,0.01,-0.003
78729,-0.144,-1.587,-9.328,-0.006,0.009,-0.003
78832,-0.136,-1.575,-9.306,-0.006,0.01,-0.003
78935,-0.136,-1.585,-9.321,-0.005,0.01,-0.003
79038,-0.153,-1.578,-9.321,-0.006,0.01,-0.003
79141,-0.129,-1.585,-9.33,-0.005,0.009,-0.003
79244,-0.132,-1.585,-9.306,-0.006,0.01,-0.003
79347,-0.141,-1.575,-9.318,-0.006,0.009,-0.003
79450,-0.134,-1.578,-9.323,-0.006,0.009,-0.004
79553,-0.139,-1.578,-9.328,-0.006,0.01,-0.003
79656,-0.146,-1.575,-9.325,-0.006,0.01,-0.003
79759,-0.132,-1.58,-9.325,-0.005,0.009,-0.004
79862,-0.134,-1.587,-9.33,-0.005,0.01,-0.003
79965,-0.144,-1.578,-9.309,-0.006,0.009,-0.003
80068,-0.129,-1.575,-9.337,-0.005,0.01,-0.003
80171,-0.141,-1.571,-9.323,-0.006,0.01,-0.003
80274,-0.146,-1.573,-9.294,-0.005,0.01,-0.003
80377,-0.139,-1.578,-9.33,-0.006,0.009,-0.003
80480,-0.136,-1.585,-9.333,-0.005,0.01,-0.003
80583,-0.136,-1.59,-9.304,-0.006,0.009,-0.003
80686,-0.144,-1.58,-9.318,-0.006,0.009,-0.003
80789,-0.151,-1.585,-9.335,-0.006,0.009,-0.003
80892,-0.141,-1.592,-9.313,-0.005,0.009,-0.003
80995,-0.136,-1.583,-9.313,-0.006,0.01,-0.003
81098,-0.124,-1.578,-9.313,-0.006,0.01,-0.003
81201,-0.139,-1.575,-9.313,-0.006,0.01,-0.003
81304,-0.136,-1.571,-9.318,-0.005,0.01,-0.004
81407,-0.136,-1.573,-9.325,-0.006,0.01,-0.003
81510,-0.144,-1.578,-9.318,-0.005,0.01,-0.003
81613,-0.134,-1.578,-9.323,-0.005,0.01,-0.004
81716,-0.136,-1.585,-9.325,-0.005,0.009,-0.003
81819,-0.139,-1.583,-9.318,-0.006,0.009,-0.004
81922,-0.136,-1.568,-9.321,-0.006,0.009,-0.003
82025,-0.132,-1.58,-9.325,-0.005,0.01,-0.003
82128,-0.144,-1.578,-9.325,-0.005,0.009,-0.003
82231,-0.129,-1.585,-9.318,-0.005,0.009,-0.003
82334,-0.139,-1.587,-9.313,-0.006,0.01,-0.003
82437,-0.136,-1.58,-9.323,-0.006,0.009,-0.003
82540,-0.134,-1.587,-9.313,-0.006,0.009,-0.003
82643,-0.134,-1.583,-9.318,-0.006,0.009,-0.003
82746,-0.132,-1.583,-9.316,-0.005,0.009,-0.003
82849,-0.136,-1.566,-9.321,-0.006,0.01,-0.003
82952,-0.139,-1.575,-9.328,-0.006,0.01,-0.003
83055,-0.144,-1.575,-9.313,-0.006,0.01,-0.003
83158,-0.136,-1.583,-9.323,-0.005,0.009,-0.003
83261,-0.136,-1.587,-9.333,-0.006,0.009,-0.004
83364,-0.141,-1.585,-9.316,-0.006,0.01,-0.003
83467,-0.139,-1.575,-9.316,-0.005,0.009,-0.004
83570,-0.141,-1.571,-9.33,-0.006,0.009,-0.003
83673,-0.134,-1.573,-9.321,-0.006,0.01,-0.003
83776,-0.139,-1.58,-9.304,-0.005,0.009,-0.003
83879,-0.134,-1.575,-9.311,-0.005,0.01,-0.003
83982,-0.134,-1.585,-9.313,-0.005,0.01,-0.003
84085,-0.141,-1.583,-9.33,-0.005,0.009,-0.003
84188,-0.134,-1.575,-9.318,-0.006,0.01,-0.003
84291,-0.141,-1.59,-9.321,-0.005,0.009,-0.003
84394,-0.148,-1.578,-9.318,-0.006,0.009,-0.003
84497,-0.141,-1.587,-9.328,-0.005,0.009,-0.003
84600,-0.132,-1.578,-9.321,-0.005,0.01,-0.003
84703,-0.144,-1.58,-9.335,-0.005,0.01,-0.003
84806,-0.148,-1.583,-9.321,-0.005,0.01,-0.003
84909,-0.136,-1.573,-9.301,-0.005,0.01,-0.003
85012,-0.132,-1.575,-9.316,-0.005,0.009,-0.003
85115,-0.146,-1.587,-9.33,-0.006,0.01,-0.004
85218,-0.144,-1.585,-9.306,-0.005,0.01,-0.004
85321,-0.146,-1.585,-9.323,-0.005,0.01,-0.003
85424,-0.141,-1.578,-9.33,-0.006,0.009,-0.003
85527,-0.134,-1.578,-9.321,-0.005,0.01,-0.003
85630,-0.144,-1.575,-9.309,-0.005,0.01,-0.003
85733,-0.144,-1.568,-9.335,-0.005,0.01,-0.004
85836,-0.139,-1.573,-9.325,-0.005,0.009,-0.004
85939,-0.141,-1.575,-9.311,-0.006,0.01,-0.003
86042,-0.141,-1.583,-9.325,-0.005,0.01,-0.003
86145,-0.144,-1.578,-9.328,-0.005,0.01,-0.004
86248,-0.148,-1.585,-9.328,-0.006,0.009,-0.003
86351,-0.144,-1.583,-9.306,-0.005,0.01,-0.003
86454,-0.134,-1.578,-9.33,-0.005,0.01,-0.003
86557,-0.136,-1.561,-9.297,-0.006,0.01,-0.004
86660,-0.134,-1.566,-9.306,-0.006,0.009,-0.003
86763,-0.139,-1.575,-9.301,-0.006,0.01,-0.003
86866,-0.139,-1.58,-9.34,-0.006,0.009,-0.003
86969,-0.144,-1.58,-9.301,-0.005,0.01,-0.004
87072,-0.139,-1.59,-9.323,-0.005,0.009,-0.003
87175,-0.132,-1.585,-9.33,-0.005,0.009,-0.003
87278,-0.134,-1.59,-9.325,-0.006,0.01,-0.003
87381,-0.139,-1.575,-9.318,-0.005,0.01,-0.003
87484,-0.146,-1.573,-9.323,-0.006,0.009,-0.003
87587,-0.139,-1.571,-9.321,-0.005,0.009,-0.003
87690,-0.136,-1.571,-9.311,-0.005,0.009,-0.004
87793,-0.129,-1.583,-9.316,-0.005,0.01,-0.003
87896,-0.134,-1.58,-9.33,-0.005,0.01,-0.004
87999,-0.141,-1.58,-9.306,-0.006,0.009,-0.003
88102,-0.139,-1.578,-9.325,-0.005,0.01,-0.003
88205,-0.144,-1.585,-9.323,-0.005,0.009,-0.003
88308,-0.144,-1.585,-9.323,-0.006,0.009,-0.003
88411,-0.136,-1.575,-9.321,-0.006,0.009,-0.003
88514,-0.146,-1.58,-9.321,-0.005,0.009,-0.003
88617,-0.139,-1.575,-9.309,-0.005,0.009,-0.003
88720,-0.136,-1.568,-9.306,-0.005,0.01,-0.003
88823,-0.139,-1.573,-9.33,-0.006,0.01,-0.003
88926,-0.136,-1.578,-9.316,-0.005,0.01,-0.003
89029,-0.141,-1.561,-9.309,-0.005,0.009,-0.003
89132,-0.136,-1.573,-9.325,-0.006,0.009,-0.003
89235,-0.134,-1.575,-9.333,-0.006,0.009,-0.003
89338,-0.139,-1.573,-9.318,-0.005,0.009,-0.003
89441,-0.134,-1.58,-9.333,-0.005,0.01,-0.004
89544,-0.129,-1.571,-9.316,-0.005,0.01,-0.003
89647,-0.136,-1.587,-9.33,-0.005,0.009,-0.003
89750,-0.136,-1.568,-9.313,-0.005,0.01,-0.003
89853,-0.134,-1.58,-9.335,-0.005,0.009,-0.003
89956,-0.151,-1.573,-9.313,-0.005,0.01,-0.004
90059,-0.144,-1.583,-9.304,-0.005,0.01,-0.003
90162,-0.141,-1.583,-9.313,-0.005,0.01,-0.003
90265,-0.134,-1.578,-9.304,-0.005,0.01,-0.003
90368,-0.134,-1.585,-9.311,-0.006,0.009,-0.003
90471,-0.141,-1.575,-9.318,-0.006,0.009,-0.003
90574,-0.139,-1.575,-9.297,-0.006,0.009,-0.003
90677,-0.141,-1.566,-9.301,-0.005,0.009,-0.003
90780,-0.136,-1.573,-9.306,-0.005,0.01,-0.003
90883,-0.139,-1.571,-9.318,-0.005,0.01,-0.003
90986,-0.134,-1.58,-9.323,-0.006,0.009,-0.003
91089,-0.144,-1.585,-9.325,-0.006,0.01,-0.004
91192,-0.144,-1.58,-9.333,-0.006,0.009,-0.004
91295,-0.144,-1.578,-9.328,-0.005,0.009,-0.003
91398,-0.139,-1.583,-9.323,-0.005,0.009,-0.003
91501,-0.144,-1.578,-9.333,-0.005,0.009,-0.004
91604,-0.151,-1.573,-9.323,-0.005,0.01,-0.004
91707,-0.144,-1.571,-9.337,-0.006,0.01,-0.003
91810,-0.134,-1.587,-9.316,-0.006,0.01,-0.003
91913,-0.139,-1.578,-9.328,-0.005,0.009,-0.003
92016,-0.132,-1.568,-9.325,-0.005,0.01,-0.003
92119,-0.144,-1.566,-9.304,-0.006,0.009,-0.003
92222,-0.136,-1.575,-9.316,-0.005,0.01,-0.003
92325,-0.139,-1.573,-9.328,-0.006,0.01,-0.003
92428,-0.134,-1.583,-9.316,-0.006,0.009,-0.004
92531,-0.139,-1.583,-9.335,-0.005,0.01,-0.003
92634,-0.148,-1.571,-9.316,-0.005,0.009,-0.003
92737,-0.141,-1.571,-9.311,-0.006,0.01,-0.003
92840,-0.129,-1.575,-9.318,-0.005,0.009,-0.003
92943,-0.144,-1.566,-9.337,-0.005,0.01,-0.003
93046,-0.139,-1.573,-9.333,-0.006,0.009,-0.004
93149,-0.146,-1.563,-9.323,-0.006,0.009,-0.003
93252,-0.139,-1.578,-9.316,-0.006,0.01,-0.003
93355,-0.132,-1.573,-9.311,-0.005,0.01,-0.003
93458,-0.136,-1.578,-9.316,-0.006,0.009,-0.003
93561,-0.136,-1.59,-9.311,-0.005,0.01,-0.003
93664,-0.139,-1.58,-9.311,-0.005,0.01,-0.004
93767,-0.134,-1.583,-9.318,-0.005,0.009,-0.003
93870,-0.134,-1.573,-9.304,-0.006,0.01,-0.003
93973,-0.144,-1.58,-9.318,-0.005,0.01,-0.003
94076,-0.134,-1.58,-9.321,-0.006,0.01,-0.003
94179,-0.141,-1.583,-9.323,-0.005,0.009,-0.004
94282,-0.141,-1.578,-9.313,-0.006,0.009,-0.004
94385,-0.141,-1.573,-9.309,-0.005,0.01,-0.003
94488,-0.141,-1.568,-9.313,-0.005,0.01,-0.003
94591,-0.144,-1.58,-9.325,-0.005,0.01,-0.003
94694,-0.141,-1.575,-9.306,-0.005,0.01,-0.003
94797,-0.134,-1.583,-9.323,-0.006,0.01,-0.004
94900,-0.144,-1.585,-9.323,-0.005,0.009,-0.003
95003,-0.136,-1.573,-9.335,-0.005,0.01,-0.003
95106,-0.136,-1.573,-9.316,-0.006,0.01,-0.003
95209,-0.146,-1.575,-9.33,-0.005,0.01,-0.003
95312,-0.148,-1.571,-9.318,-0.006,0.01,-0.004
95415,-0.146,-1.575,-9.333,-0.005,0.009,-0.003
95518,-0.139,-1.568,-9.323,-0.006,0.009,-0.004
95621,-0.153,-1.575,-9.313,-0.005,0.009,-0.003
95724,-0.146,-1.587,-9.321,-0.005,0.01,-0.003
95827,-0.136,-1.568,-9.316,-0.005,0.009,-0.004
95930,-0.141,-1.58,-9.304,-0.006,0.01,-0.003
96033,-0.151,-1.573,-9.318,-0.005,0.01,-0.004
96136,-0.134,-1.575,-9.323,-0.005,0.009,-0.003
96239,-0.134,-1.566,-9.318,-0.005,0.009,-0.004
96342,-0.151,-1.578,-9.309,-0.005,0.01,-0.003
96445,-0.141,-1.573,-9.309,-0.005,0.009,-0.003
96548,-0.136,-1.578,-9.304,-0.006,0.009,-0.003
96651,-0.134,-1.575,-9.316,-0.005,0.01,-0.003
96754,-0.132,-1.585,-9.309,-0.005,0.009,-0.003
96857,-0.141,-1.585,-9.325,-0.005,0.009,-0.003
96960,-0.129,-1.585,-9.325,-0.005,0.009,-0.004
97063,-0.136,-1.578,-9.325,-0.005,0.009,-0.003
97166,-0.146,-1.573,-9.316,-0.005,0.009,-0.003
97269,-0.136,-1.583,-9.321,-0.005,0.009,-0.004
97372,-0.132,-1.571,-9.33,-0.006,0.009,-0.003
97475,-0.141,-1.573,-9.321,-0.006,0.01,-0.003
97578,-0.148,-1.58,-9.318,-0.006,0.01,-0.003
97681,-0.144,-1.59,-9.323,-0.005,0.009,-0.004
97784,-0.139,-1.585,-9.318,-0.006,0.01,-0.003
97887,-0.139,-1.573,-9.328,-0.006,0.009,-0.003
97990,-0.144,-1.578,-9.323,-0.005,0.01,-0.003
98093,-0.139,-1.578,-9.311,-0.006,0.009,-0.003
98196,-0.139,-1.566,-9.321,-0.006,0.009,-0.004
98299,-0.141,-1.566,-9.309,-0.005,0.01,-0.003
98402,-0.124,-1.568,-9.325,-0.006,0.01,-0.003
98505,-0.139,-1.575,-9.325,-0.006,0.009,-0.003
98608,-0.136,-1.575,-9.313,-0.005,0.009,-0.003
98711,-0.139,-1.575,-9.316,-0.006,0.009,-0.003
98814,-0.146,-1.58,-9.316,-0.006,0.01,-0.003
98917,-0.139,-1.573,-9.318,-0.005,0.01,-0.003
99020,-0.141,-1.583,-9.323,-0.005,0.009,-0.004
99123,-0.139,-1.58,-9.328,-0.005,0.01,-0.003
99226,-0.139,-1.573,-9.311,-0.005,0.01,-0.003
99329,-0.144,-1.575,-9.306,-0.005,0.009,-0.004
99432,-0.151,-1.563,-9.318,-0.005,0.01,-0.003
99535,-0.136,-1.571,-9.321,-0.005,0.01,-0.003
99638,-0.136,-1.573,-9.321,-0.006,0.009,-0.003
99741,-0.146,-1.58,-9.323,-0.005,0.009,-0.004
99844,-0.136,-1.578,-9.316,-0.005,0.009,-0.003
99947,-0.144,-1.583,-9.318,-0.005,0.01,-0.003
100050,-0.144,-1.568,-9.328,-0.005,0.01,-0.003
100153,-0.132,-1.575,-9.318,-0.006,0.01,-0.004
100256,-0.141,-1.563,-9.313,-0.005,0.009,-0.003
100359,-0.151,-1.573,-9.318,-0.006,0.009,-0.004
100462,-0.136,-1.578,-9.333,-0.006,0.01,-0.003
100565,-0.139,-1.59,-9.313,-0.006,0.009,-0.003
100668,-0.148,-1.585,-9.316,-0.006,0.01,-0.004
100771,-0.141,-1.587,-9.321,-0.005,0.009,-0.004
100874,-0.136,-1.583,-9.316,-0.006,0.009,-0.003
100977,-0.146,-1.573,-9.318,-0.006,0.01,-0.003
101080,-0.134,-1.573,-9.323,-0.006,0.009,-0.004
101183,-0.136,-1.571,-9.323,-0.005,0.009,-0.003
101286,-0.127,-1.58,-9.309,-0.006,0.01,-0.003
101389,-0.134,-1.573,-9.311,-0.005,0.01,-0.003
101492,-0.141,-1.575,-9.333,-0.005,0.01,-0.003
101595,-0.136,-1.58,-9.318,-0.006,0.01,-0.003
101698,-0.144,-1.573,-9.325,-0.005,0.009,-0.004
101801,-0.141,-1.583,-9.321,-0.006,0.01,-0.003
101904,-0.136,-1.571,-9.323,-0.005,0.009,-0.004
102007,-0.139,-1.575,-9.316,-0.005,0.01,-0.003
102110,-0.153,-1.58,-9.321,-0.005,0.009,-0.004
102213,-0.148,-1.566,-9.309,-0.005,0.009,-0.004
102316,-0.139,-1.566,-9.311,-0.005,0.01,-0.003
102419,-0.144,-1.578,-9.316,-0.005,0.009,-0.004
102522,-0.132,-1.587,-9.33,-0.006,0.01,-0.003
102625,-0.141,-1.575,-9.304,-0.005,0.009,-0.004
102728,-0.127,-1.578,-9.328,-0.005,0.01,-0.003
102831,-0.144,-1.575,-9.328,-0.006,0.009,-0.003
102934,-0.151,-1.568,-9.323,-0.005,0.009,-0.003
103037,-0.141,-1.573,-9.323,-0.006,0.01,-0.003
103140,-0.144,-1.585,-9.316,-0.006,0.009,-0.003
103243,-0.136,-1.583,-9.316,-0.005,0.009,-0.003
103346,-0.148,-1.583,-9.318,-0.005,0.01,-0.003
103449,-0.132,-1.59,-9.328,-0.006,0.009,-0.004
103552,-0.144,-1.578,-9.313,-0.006,0.009,-0.003
103655,-0.144,-1.575,-9.33,-0.005,0.009,-0.003
103758,-0.139,-1.571,-9.316,-0.005,0.01,-0.004
103861,-0.139,-1.566,-9.323,-0.006,0.01,-0.004
103964,-0.141,-1.575,-9.313,-0.006,0.009,-0.003
104067,-0.134,-1.573,-9.323,-0.006,0.009,-0.003
104170,-0.136,-1.571,-9.321,-0.006,0.01,-0.003
104273,-0.141,-1.578,-9.321,-0.006,0.009,-0.003
104376,-0.146,-1.58,-9.321,-0.006,0.01,-0.003
104479,-0.141,-1.58,-9.325,-0.006,0.009,-0.003
104582,-0.144,-1.571,-9.323,-0.006,0.009,-0.003
104685,-0.136,-1.573,-9.325,-0.005,0.009,-0.004
104788,-0.146,-1.575,-9.33,-0.005,0.009,-0.004
104891,-0.134,-1.58,-9.33,-0.005,0.009,-0.003
104994,-0.134,-1.578,-9.306,-0.005,0.01,-0.003
105097,-0.132,-1.578,-9.321,-0.005,0.009,-0.004
105200,-0.136,-1.583,-9.321,-0.005,0.01,-0.003
105303,-0.153,-1.578,-9.311,-0.005,0.01,-0.004
105406,-0.144,-1.573,-9.306,-0.005,0.009,-0.004
105509,-0.136,-1.58,-9.321,-0.006,0.009,-0.003
105612,-0.148,-1.575,-9.325,-0.005,0.009,-0.003
105715,-0.139,-1.563,-9.309,-0.006,0.009,-0.004
105818,-0.144,-1.575,-9.321,-0.006,0.009,-0.003
105921,-0.132,-1.573,-9.316,-0.005,0.01,-0.004
106024,-0.132,-1.571,-9.306,-0.005,0.009,-0.003
106127,-0.132,-1.573,-9.309,-0.006,0.009,-0.003
106230,-0.127,-1.573,-9.321,-0.006,0.009,-0.003
106333,-0.158,-1.585,-9.328,-0.005,0.009,-0.004
106436,-0.141,-1.585,-9.323,-0.006,0.009,-0.003
106539,-0.146,-1.573,-9.328,-0.005,0.009,-0.003
106642,-0.144,-1.575,-9.325,-0.005,0.01,-0.003
106745,-0.141,-1.563,-9.33,-0.005,0.009,-0.003
106848,-0.093,-1.59,-9.345,-0.006,0.01,-0.003
106951,-0.139,-1.573,-9.304,-0.005,0.01,-0.004
107054,-0.153,-1.571,-9.318,-0.006,0.009,-0.003
107157,-0.158,-1.59,-9.318,-0.006,0.009,-0.003
107260,-0.139,-1.583,-9.306,-0.006,0.01,-0.003
107363,-0.139,-1.578,-9.33,-0.006,0.01,-0.003
107466,-0.136,-1.573,-9.313,-0.006,0.01,-0.004
107569,-0.136,-1.585,-9.309,-0.005,0.009,-0.004
107672,-0.146,-1.575,-9.316,-0.005,0.009,-0.003
107775,-0.134,-1.573,-9.311,-0.005,0.01,-0.003
107878,-0.132,-1.58,-9.321,-0.006,0.01,-0.003
107981,-0.134,-1.58,-9.318,-0.005,0.01,-0.003
108084,-0.151,-1.583,-9.304,-0.005,0.009,-0.003
108187,-0.144,-1.59,-9.323,-0.005,0.009,-0.003
108290,-0.144,-1.58,-9.323,-0.005,0.009,-0.004
108393,-0.136,-1.583,-9.333,-0.005,0.009,-0.003
108496,-0.144,-1.575,-9.318,-0.005,0.01,-0.003
108599,-0.139,-1.566,-9.328,-0.005,0.01,-0.003
108702,-0.141,-1.556,-9.325,-0.005,0.01,-0.004
108805,-0.139,-1.573,-9.316,-0.005,0.009,-0.003
108908,-0.148,-1.566,-9.301,-0.005,0.009,-0.003
109011,-0.151,-1.583,-9.313,-0.005,0.009,-0.003
109114,-0.144,-1.585,-9.33,-0.006,0.01,-0.004
109217,-0.141,-1.587,-9.325,-0.006,0.009,-0.004
109320,-0.136,-1.587,-9.328,-0.006,0.009,-0.004
109423,-0.151,-1.578,-9.325,-0.005,0.01,-0.004
109526,-0.132,-1.573,-9.311,-0.005,0.01,-0.003
109629,-0.139,-1.566,-9.335,-0.005,0.01,-0.003
109732,-0.144,-1.568,-9.318,-0.005,0.01,-0.003
109835,-0.136,-1.573,-9.325,-0.005,0.009,-0.003
109938,-0.139,-1.583,-9.333,-0.006,0.009,-0.003
110041,-0.136,-1.568,-9.325,-0.006,0.01,-0.003
110144,-0.141,-1.571,-9.316,-0.006,0.009,-0.003
110247,-0.144,-1.58,-9.321,-0.005,0.01,-0.003
110350,-0.139,-1.578,-9.306,-0.005,0.01,-0.003
110453,-0.144,-1.587,-9.306,-0.005,0.01,-0.003
110556,-0.136,-1.571,-9.323,-0.005,0.01,-0.003
110659,-0.144,-1.571,-9.333,-0.005,0.01,-0.003
110762,-0.144,-1.575,-9.321,-0.005,0.009,-0.003
110865,-0.139,-1.573,-9.321,-0.006,0.009,-0.003
110968,-0.172,-2.006,-9.278,-0.081,0.018,-0.006
111071,-0.053,0.031,-9.421,-1.134,0.075,0.006
111174,-0.029,0.297,-9.452,-0.124,0.016,-0.001
111277,-0.026,0.247,-9.455,-0.011,0.008,-0.002
111380,-0.026,0.247,-9.455,-0.006,0.009,-0.002
111483,-0.034,0.249,-9.452,-0.006,0.009,-0.003
111586,-0.024,0.237,-9.438,-0.006,0.01,-0.003
111689,-0.041,0.254,-9.45,-0.005,0.009,-0.003
111792,-0.043,0.259,-9.438,-0.006,0.01,-0.003
111895,-0.029,0.254,-9.45,-0.006,0.009,-0.003
111998,-0.034,0.249,-9.455,-0.006,0.01,-0.003
112101,-0.045,0.249,-9.45,-0.005,0.01,-0.004
112204,-0.026,0.259,-9.452,-0.005,0.009,-0.003
112307,-0.031,0.242,-9.443,-0.005,0.009,-0.003
112410,-0.038,0.254,-9.457,-0.005,0.009,-0.003
112513,-0.113,-0.998,-9.287,1.908,-0.104,-0.01
112616,-0.144,-1.571,-9.318,0.111,0.003,-0.005
112719,-0.144,-1.559,-9.316,0.0,0.01,-0.003
112822,-0.141,-1.563,-9.301,-0.006,0.009,-0.003
112925,-0.144,-1.549,-9.311,-0.006,0.01,-0.003
113028,-0.141,-1.563,-9.323,-0.006,0.009,-0.003
113131,-0.136,-1.568,-9.321,-0.005,0.01,-0.003
113234,-0.127,-1.563,-9.316,-0.006,0.009,-0.004
113337,-0.134,-1.554,-9.316,-0.005,0.01,-0.003
113440,-0.139,-1.559,-9.311,-0.005,0.01,-0.003
113543,-0.134,-1.551,-9.316,-0.005,0.009,-0.003
113646,-0.136,-1.556,-9.316,-0.006,0.01,-0.003
113749,-0.141,-1.561,-9.311,-0.006,0.009,-0.003
113852,-0.132,-1.559,-9.321,-0.005,0.009,-0.003
113955,-0.139,-1.575,-9.321,-0.005,0.01,-0.003
114058,-0.144,-1.561,-9.318,-0.005,0.01,-0.004
114161,-0.134,-1.568,-9.333,-0.005,0.01,-0.003
114264,-0.127,-1.559,-9.33,-0.005,0.009,-0.003
114367,-0.134,-1.559,-9.321,-0.006,0.01,-0.003
114470,-0.141,-1.556,-9.316,-0.005,0.009,-0.003
114573,-0.136,-1.551,-9.313,-0.005,0.009,-0.003
114676,-0.139,-1.559,-9.328,-0.005,0.009,-0.004
114779,-0.134,-1.556,-9.316,-0.005,0.009,-0.004
114882,-0.139,-1.568,-9.323,-0.006,0.009,-0.003
114985,-0.134,-1.563,-9.323,-0.005,0.009,-0.003
115088,-0.139,-1.578,-9.318,-0.005,0.009,-0.003
115191,-0.136,-1.568,-9.309,-0.006,0.009,-0.004
115294,-0.144,-1.556,-9.321,-0.005,0.01,-0.004
115397,-0.141,-1.563,-9.309,-0.005,0.009,-0.003
115500,-0.122,-1.554,-9.313,-0.006,0.01,-0.003
115603,-0.132,-1.561,-9.323,-0.005,0.009,-0.003
115706,-0.132,-1.561,-9.321,-0.006,0.009,-0.004
115809,-0.134,-1.563,-9.306,-0.006,0.009,-0.003
115912,-0.144,-1.568,-9.292,-0.005,0.01,-0.004
116015,-0.136,-1.573,-9.313,-0.005,0.009,-0.003
116118,-0.139,-1.571,-9.325,-0.006,0.009,-0.003
116221,-0.124,-1.554,-9.311,-0.006,0.009,-0.003
116324,-0.141,-1.559,-9.323,-0.005,0.009,-0.003
116427,-0.132,-1.554,-9.321,-0.006,0.009,-0.003
116530,-0.151,-1.559,-9.313,-0.006,0.01,-0.004
116633,-0.139,-1.561,-9.301,-0.005,0.01,-0.003
116736,-0.139,-1.563,-9.311,-0.005,0.009,-0.003
116839,-0.136,-1.563,-9.328,-0.006,0.009,-0.004
116942,-0.141,-1.568,-9.318,-0.005,0.009,-0.003
117045,-0.136,-1.563,-9.309,-0.005,0.01,-0.003
117148,-0.134,-1.563,-9.306,-0.005,0.01,-0.003
117251,-0.127,-1.561,-9.313,-0.005,0.009,-0.003
117354,-0.141,-1.563,-9.309,-0.005,0.009,-0.003
117457,-0.134,-1.566,-9.313,-0.005,0.009,-0.003
117560,-0.139,-1.563,-9.306,-0.005,0.01,-0.003
117663,-0.124,-1.561,-9.33,-0.005,0.009,-0.003
117766,-0.132,-1.563,-9.328,-0.005,0.009,-0.003
117869,-0.144,-1.561,-9.323,-0.005,0.01,-0.003
117972,-0.144,-1.568,-9.311,-0.005,0.009,-0.003
118075,-0.134,-1.549,-9.309,-0.005,0.009,-0.003
118178,-0.146,-1.563,-9.313,-0.005,0.01,-0.003
118281,-0.139,-1.551,-9.318,-0.005,0.009,-0.003
118384,-0.136,-1.551,-9.297,-0.005,0.009,-0.003
118487,-0.139,-1.571,-9.316,-0.006,0.009,-0.004
118590,-0.139,-1.563,-9.333,-0.005,0.009,-0.003
118693,-0.141,-1.559,-9.309,-0.005,0.009,-0.003
118796,-0.144,-1.563,-9.33,-0.005,0.01,-0.003
118899,-0.141,-1.554,-9.316,-0.006,0.009,-0.003
119002,-0.134,-1.563,-9.323,-0.005,0.009,-0.003
119105,-0.134,-1.561,-9.325,-0.005,0.009,-0.003
119208,-0.129,-1.561,-9.328,-0.006,0.009,-0.003
119311,-0.134,-1.551,-9.337,-0.006,0.01,-0.003
119414,-0.139,-1.563,-9.33,-0.006,0.01,-0.004
119517,-0.139,-1.563,-9.316,-0.005,0.009,-0.003
119620,-0.144,-1.563,-9.328,-0.005,0.01,-0.004
119723,-0.132,-1.561,-9.318,-0.005,0.009,-0.003
119826,-0.129,-1.559,-9.321,-0.005,0.009,-0.003
119929,-0.139,-1.561,-9.311,-0.005,0.01,-0.004
120032,-0.129,-1.563,-9.325,-0.006,0.01,-0.003
120135,-0.129,-1.566,-9.333,-0.005,0.009,-0.003
120238,-0.144,-1.563,-9.318,-0.005,0.009,-0.003
120341,-0.132,-1.556,-9.328,-0.005,0.01,-0.003
120444,-0.141,-1.571,-9.323,-0.005,0.01,-0.004
120547,-0.139,-1.571,-9.323,-0.006,0.01,-0.003
120650,-0.136,-1.568,-9.325,-0.006,0.009,-0.003
120753,-0.132,-1.563,-9.321,-0.005,0.009,-0.003
120856,-0.136,-1.561,-9.316,-0.005,0.009,-0.004
120959,-0.132,-1.554,-9.321,-0.005,0.009,-0.003
121062,-0.136,-1.559,-9.321,-0.005,0.009,-0.003
121165,-0.139,-1.563,-9.323,-0.006,0.009,-0.004
121268,-0.132,-1.563,-9.316,-0.006,0.009,-0.003
121371,-0.134,-1.554,-9.328,-0.005,0.009,-0.003
121474,-0.134,-1.563,-9.325,-0.006,0.009,-0.004
121577,-0.134,-1.571,-9.316,-0.005,0.01,-0.004
121680,-0.129,-1.563,-9.328,-0.005,0.01,-0.003
121783,-0.129,-1.561,-9.323,-0.005,0.009,-0.004
121886,-0.139,-1.556,-9.335,-0.005,0.009,-0.004
121989,-0.141,-1.566,-9.321,-0.005,0.009,-0.004
122092,-0.132,-1.554,-9.318,-0.005,0.009,-0.004
122195,-0.136,-1.556,-9.316,-0.006,0.01,-0.003
122298,-0.132,-1.566,-9.33,-0.005,0.009,-0.003
122401,-0.134,-1.563,-9.325,-0.006,0.009,-0.004
122504,-0.139,-1.568,-9.318,-0.005,0.009,-0.003
122607,-0.132,-1.583,-9.318,-0.006,0.009,-0.003
122710,-0.144,-1.583,-9.311,-0.005,0.01,-0.004
122813,-0.146,-1.568,-9.328,-0.005,0.01,-0.003
122916,-0.139,-1.556,-9.328,-0.005,0.01,-0.004
123019,-0.134,-1.556,-9.335,-0.006,0.009,-0.004
123122,-0.122,-1.554,-9.342,-0.005,0.009,-0.003
123225,-0.132,-1.551,-9.321,-0.006,0.01,-0.003
123328,-0.139,-1.561,-9.337,-0.006,0.009,-0.003
123431,-0.136,-1.571,-9.316,-0.006,0.01,-0.003
123534,-0.132,-1.575,-9.323,-0.006,0.01,-0.004
123637,-0.132,-1.58,-9.313,-0.005,0.009,-0.003
123740,-0.132,-1.566,-9.325,-0.006,0.01,-0.004
123843,-0.141,-1.547,-9.325,-0.005,0.009,-0.003
123946,-0.158,-1.559,-9.321,-0.005,0.01,-0.003
124049,-0.146,-1.551,-9.304,-0.006,0.009,-0.003
124152,-0.141,-1.547,-9.321,-0.006,0.009,-0.003
124255,-0.124,-1.561,-9.323,-0.006,0.009,-0.004
124358,-0.132,-1.566,-9.311,-0.005,0.009,-0.003
124461,-0.153,-1.556,-9.304,-0.005,0.009,-0.004
124564,-0.136,-1.566,-9.316,-0.006,0.009,-0.003
124667,-0.139,-1.571,-9.323,-0.006,0.01,-0.003
124770,-0.136,-1.578,-9.33,-0.006,0.01,-0.003
124873,-0.132,-1.559,-9.325,-0.006,0.009,-0.003
124976,-0.141,-1.561,-9.323,-0.005,0.01,-0.003
125079,-0.139,-1.559,-9.323,-0.006,0.01,-0.004
125182,-0.127,-1.563,-9.311,-0.005,0.009,-0.004
125285,-0.136,-1.559,-9.34,-0.005,0.009,-0.003
125388,-0.136,-1.554,-9.321,-0.005,0.009,-0.003
125491,-0.141,-1.563,-9.335,-0.005,0.009,-0.003
125594,-0.141,-1.559,-9.323,-0.005,0.009,-0.003
125697,-0.136,-1.575,-9.321,-0.005,0.009,-0.003
125800,-0.132,-1.563,-9.309,-0.005,0.009,-0.004
125903,-0.141,-1.559,-9.323,-0.005,0.009,-0.003
126006,-0.139,-1.559,-9.316,-0.005,0.01,-0.003
126109,-0.122,-1.559,-9.313,-0.005,0.01,-0.003
126212,-0.136,-1.556,-9.328,-0.005,0.009,-0.003
126315,-0.132,-1.566,-9.311,-0.005,0.01,-0.003
126418,-0.139,-1.571,-9.328,-0.005,0.009,-0.004
126521,-0.136,-1.58,-9.337,-0.006,0.009,-0.004
126624,-0.132,-1.566,-9.328,-0.005,0.009,-0.003
126727,-0.132,-1.566,-9.318,-0.005,0.009,-0.003
126830,-0.132,-1.559,-9.316,-0.005,0.009,-0.004
126933,-0.113,-1.563,-9.337,-0.005,0.009,-0.003
127036,-0.139,-1.566,-9.316,-0.005,0.009,-0.003
127139,-0.141,-1.561,-9.33,-0.005,0.009,-0.003
127242,-0.141,-1.571,-9.321,-0.005,0.01,-0.003
127345,-0.134,-1.573,-9.33,-0.005,0.009,-0.004
127448,-0.144,-1.556,-9.323,-0.005,0.01,-0.003
127551,-0.132,-1.554,-9.325,-0.005,0.009,-0.004
127654,-0.132,-1.559,-9.325,-0.005,0.009,-0.003
127757,-0.136,-1.563,-9.33,-0.006,0.009,-0.003
127860,-0.139,-1.573,-9.34,-0.005,0.009,-0.004
127963,-0.127,-1.563,-9.323,-0.005,0.01,-0.003
128066,-0.146,-1.568,-9.313,-0.006,0.01,-0.003
128169,-0.151,-1.559,-9.323,-0.006,0.01,-0.003
128272,-0.146,-1.554,-9.321,-0.006,0.009,-0.003
128375,-0.132,-1.554,-9.316,-0.006,0.01,-0.004
128478,-0.122,-1.554,-9.33,-0.006,0.009,-0.003
128581,-0.132,-1.547,-9.318,-0.006,0.009,-0.003
128684,-0.136,-1.561,-9.309,-0.006,0.01,-0.003
128787,-0.134,-1.568,-9.337,-0.005,0.009,-0.003
128890,-0.129,-1.566,-9.325,-0.006,0.01,-0.004
128993,-0.134,-1.566,-9.316,-0.006,0.01,-0.004
129096,-0.141,-1.571,-9.33,-0.005,0.009,-0.003
129199,-0.136,-1.571,-9.316,-0.005,0.009,-0.003
129302,-0.139,-1.568,-9.328,-0.005,0.01,-0.004
129405,-0.134,-1.566,-9.323,-0.006,0.01,-0.003
129508,-0.151,-1.554,-9.309,-0.005,0.009,-0.003
129611,-0.146,-1.549,-9.318,-0.006,0.009,-0.003
129714,-0.134,-1.551,-9.325,-0.005,0.009,-0.003
129817,-0.144,-1.563,-9.304,-0.006,0.01,-0.003
129920,-0.134,-1.561,-9.318,-0.005,0.01,-0.003
130023,-0.132,-1.585,-9.318,-0.005,0.01,-0.003
130126,-0.144,-1.571,-9.335,-0.005,0.009,-0.003
130229,-0.148,-1.559,-9.311,-0.005,0.01,-0.003
130332,-0.144,-1.544,-9.306,-0.005,0.01,-0.003
130435,-0.124,-1.559,-9.316,-0.006,0.01,-0.003
130538,-0.127,-1.561,-9.309,-0.005,0.01,-0.003
130641,-0.136,-1.554,-9.301,-0.005,0.01,-0.003
130744,-0.136,-1.561,-9.318,-0.005,0.01,-0.003
130847,-0.144,-1.561,-9.304,-0.005,0.009,-0.003
130950,-0.136,-1.571,-9.316,-0.006,0.009,-0.003
131053,-0.134,-1.561,-9.321,-0.005,0.01,-0.004
131156,-0.136,-1.561,-9.323,-0.005,0.009,-0.003
131259,-0.134,-1.559,-9.316,-0.005,0.01,-0.004
131362,-0.136,-1.563,-9.323,-0.005,0.01,-0.004
131465,-0.146,-1.563,-9.316,-0.005,0.009,-0.003
131568,-0.141,-1.554,-9.321,-0.005,0.009,-0.004
131671,-0.136,-1.566,-9.337,-0.005,0.009,-0.004
131774,-0.141,-1.575,-9.352,-0.005,0.01,-0.003
131877,-0.132,-1.571,-9.321,-0.006,0.009,-0.003
131980,-0.144,-1.568,-9.33,-0.005,0.009,-0.003
132083,-0.141,-1.566,-9.33,-0.006,0.009,-0.004
132186,-0.148,-1.571,-9.309,-0.006,0.009,-0.003
132289,-0.146,-1.561,-9.325,-0.005,0.009,-0.003
132392,-0.141,-1.559,-9.311,-0.006,0.01,-0.003
132495,-0.127,-1.549,-9.311,-0.005,0.009,-0.003
132598,-0.136,-1.563,-9.342,-0.006,0.009,-0.003
132701,-0.132,-1.566,-9.321,-0.005,0.009,-0.003
132804,-0.136,-1.559,-9.313,-0.005,0.009,-0.003
132907,-0.139,-1.561,-9.335,-0.005,0.01,-0.003
133010,-0.141,-1.561,-9.318,-0.006,0.01,-0.003
133113,-0.129,-1.571,-9.323,-0.006,0.01,-0.003
133216,-0.127,-1.556,-9.313,-0.006,0.009,-0.003
133319,-0.141,-1.563,-9.316,-0.006,0.009,-0.003
133422,-0.136,-1.554,-9.325,-0.005,0.009,-0.003
133525,-0.127,-1.554,-9.318,-0.005,0.009,-0.003
133628,-0.124,-1.556,-9.309,-0.006,0.009,-0.003
133731,-0.129,-1.559,-9.311,-0.006,0.009,-0.004
133834,-0.136,-1.563,-9.333,-0.006,0.009,-0.003
133937,-0.139,-1.573,-9.316,-0.005,0.009,-0.004
134040,-0.144,-1.58,-9.321,-0.005,0.009,-0.004
134143,-0.127,-1.568,-9.335,-0.006,0.009,-0.004
134246,-0.124,-1.571,-9.333,-0.005,0.009,-0.004
134349,-0.129,-1.563,-9.325,-0.005,0.009,-0.003
134452,-0.134,-1.563,-9.325,-0.005,0.01,-0.003
134555,-0.134,-1.551,-9.328,-0.005,0.01,-0.004
134658,-0.129,-1.559,-9.313,-0.006,0.01,-0.003
134761,-0.134,-1.568,-9.321,-0.006,0.01,-0.004
134864,-0.136,-1.561,-9.316,-0.005,0.01,-0.003
134967,-0.134,-1.563,-9.333,-0.005,0.01,-0.004
135070,-0.136,-1.58,-9.325,-0.006,0.009,-0.004
135173,-0.139,-1.563,-9.328,-0.005,0.009,-0.003
135276,-0.141,-1.566,-9.325,-0.005,0.009,-0.003
135379,-0.136,-1.554,-9.316,-0.005,0.009,-0.003
135482,-0.127,-1.559,-9.313,-0.005,0.009,-0.003
135585,-0.144,-1.559,-9.333,-0.005,0.01,-0.003
135688,-0.139,-1.556,-9.333,-0.005,0.01,-0.004
135791,-0.141,-1.566,-9.33,-0.005,0.009,-0.004
135894,-0.144,-1.563,-9.321,-0.005,0.01,-0.004
135997,-0.136,-1.571,-9.321,-0.005,0.009,-0.004
136100,-0.127,-1.573,-9.313,-0.005,0.009,-0.003
136203,-0.132,-1.566,-9.325,-0.005,0.01,-0.003
136306,-0.139,-1.556,-9.316,-0.005,0.01,-0.004
136409,-0.134,-1.559,-9.318,-0.006,0.01,-0.003
136512,-0.139,-1.559,-9.316,-0.005,0.01,-0.003
136615,-0.134,-1.563,-9.321,-0.005,0.009,-0.003
136718,-0.136,-1.561,-9.313,-0.005,0.009,-0.003
136821,-0.134,-1.568,-9.325,-0.005,0.009,-0.004
136924,-0.127,-1.566,-9.316,-0.005,0.009,-0.003
137027,-0.146,-1.563,-9.299,-0.005,0.009,-0.004
137130,-0.127,-1.551,-9.325,-0.005,0.01,-0.003
137233,-0.139,-1.561,-9.318,-0.006,0.01,-0.003
137336,-0.134,-1.566,-9.311,-0.006,0.01,-0.003
137439,-0.132,-1.561,-9.323,-0.005,0.009,-0.004
137542,-0.144,-1.563,-9.323,-0.006,0.009,-0.003
137645,-0.136,-1.566,-9.309,-0.005,0.009,-0.003
137748,-0.129,-1.566,-9.311,-0.005,0.01,-0.003
137851,-0.136,-1.571,-9.325,-0.005,0.009,-0.003
137954,-0.139,-1.571,-9.318,-0.005,0.009,-0.003
138057,-0.139,-1.561,-9.313,-0.005,0.009,-0.003
138160,-0.136,-1.559,-9.321,-0.005,0.01,-0.003
138263,-0.139,-1.563,-9.316,-0.006,0.01,-0.003
138366,-0.141,-1.559,-9.321,-0.005,0.01,-0.003
138469,-0.139,-1.554,-9.318,-0.006,0.009,-0.003
138572,-0.134,-1.559,-9.321,-0.005,0.01,-0.003
138675,-0.139,-1.559,-9.309,-0.005,0.01,-0.003
138778,-0.136,-1.559,-9.316,-0.006,0.01,-0.003
138881,-0.139,-1.559,-9.321,-0.005,0.009,-0.003
138984,-0.139,-1.554,-9.335,-0.005,0.009,-0.004
139087,-0.134,-1.556,-9.328,-0.006,0.009,-0.003
139190,-0.129,-1.556,-9.349,-0.006,0.009,-0.003
139293,-0.124,-1.563,-9.328,-0.005,0.01,-0.003
139396,-0.139,-1.556,-9.318,-0.005,0.01,-0.004
139499,-0.132,-1.566,-9.323,-0.006,0.01,-0.004
139602,-0.139,-1.561,-9.313,-0.005,0.01,-0.004
139705,-0.139,-1.568,-9.309,-0.005,0.009,-0.004
139808,-0.132,-1.568,-9.337,-0.005,0.009,-0.003
139911,-0.148,-1.568,-9.316,-0.005,0.009,-0.004
140014,-0.141,-1.566,-9.325,-0.006,0.009,-0.004
140117,-0.134,-1.563,-9.318,-0.005,0.01,-0.003
140220,-0.139,-1.571,-9.309,-0.006,0.009,-0.003
140323,-0.141,-1.559,-9.33,-0.005,0.009,-0.003
140426,-0.132,-1.561,-9.34,-0.006,0.01,-0.004
140529,-0.136,-1.563,-9.325,-0.005,0.01,-0.004
140632,-0.127,-1.561,-9.313,-0.006,0.009,-0.003
140735,-0.134,-1.575,-9.313,-0.005,0.01,-0.003
140838,-0.136,-1.561,-9.316,-0.005,0.01,-0.003
140941,-0.127,-1.559,-9.306,-0.005,0.009,-0.004
141044,-0.134,-1.561,-9.337,-0.005,0.01,-0.003
141147,-0.132,-1.554,-9.321,-0.006,0.01,-0.003
141250,-0.129,-1.566,-9.313,-0.005,0.01,-0.004
141353,-0.136,-1.568,-9.333,-0.005,0.009,-0.003
141456,-0.134,-1.568,-9.325,-0.006,0.01,-0.004
141559,-0.141,-1.58,-9.325,-0.006,0.01,-0.003
141662,-0.141,-1.571,-9.313,-0.005,0.009,-0.003
141765,-0.129,-1.556,-9.313,-0.006,0.01,-0.003
141868,-0.134,-1.549,-9.328,-0.005,0.01,-0.003
141971,-0.132,-1.556,-9.318,-0.005,0.01,-0.003
142074,-0.127,-1.563,-9.325,-0.005,0.01,-0.003
142177,-0.124,-1.563,-9.323,-0.005,0.01,-0.003
142280,-0.134,-1.568,-9.323,-0.005,0.01,-0.004
142383,-0.124,-1.559,-9.311,-0.005,0.009,-0.003
142486,-0.141,-1.571,-9.313,-0.005,0.01,-0.003
142589,-0.134,-1.563,-9.337,-0.005,0.01,-0.003
142692,-0.141,-1.551,-9.311,-0.005,0.009,-0.004
142795,-0.134,-1.551,-9.323,-0.006,0.009,-0.003
142898,-0.144,-1.563,-9.318,-0.005,0.009,-0.004
143001,-0.144,-1.556,-9.323,-0.006,0.009,-0.003
143104,-0.132,-1.556,-9.333,-0.005,0.01,-0.003
143207,-0.132,-1.563,-9.325,-0.005,0.01,-0.004
143310,-0.124,-1.568,-9.309,-0.005,0.01,-0.003
143413,-0.148,-1.556,-9.33,-0.006,0.009,-0.003
143516,-0.134,-1.559,-9.309,-0.005,0.01,-0.004
143619,-0.141,-1.563,-9.335,-0.005,0.009,-0.003
143722,-0.144,-1.563,-9.309,-0.005,0.01,-0.003
143825,-0.141,-1.563,-9.321,-0.005,0.01,-0.003
143928,-0.127,-1.566,-9.328,-0.006,0.009,-0.004
144031,-0.132,-1.559,-9.325,-0.006,0.009,-0.004
144134,-0.136,-1.551,-9.316,-0.005,0.009,-0.003
144237,-0.129,-1.566,-9.333,-0.005,0.01,-0.003
144340,-0.134,-1.561,-9.333,-0.005,0.01,-0.003
144443,-0.136,-1.554,-9.313,-0.005,0.01,-0.004
144546,-0.127,-1.568,-9.311,-0.005,0.009,-0.004
144649,-0.136,-1.571,-9.323,-0.005,0.01,-0.003
144752,-0.124,-1.563,-9.318,-0.005,0.01,-0.004
144855,-0.132,-1.575,-9.321,-0.005,0.01,-0.003
144958,-0.136,-1.571,-9.328,-0.005,0.01,-0.004
145061,-0.146,-1.571,-9.333,-0.005,0.009,-0.003
145164,-0.139,-1.573,-9.33,-0.006,0.01,-0.003
145267,-0.146,-1.556,-9.328,-0.006,0.009,-0.003
145370,-0.136,-1.556,-9.333,-0.006,0.01,-0.003
145473,-0.129,-1.563,-9.321,-0.006,0.009,-0.003
145576,-0.139,-1.563,-9.337,-0.005,0.009,-0.003
145679,-0.139,-1.566,-9.323,-0.005,0.009,-0.003
145782,-0.129,-1.559,-9.325,-0.006,0.009,-0.003
145885,-0.139,-1.573,-9.318,-0.006,0.009,-0.004
145988,-0.139,-1.573,-9.316,-0.005,0.01,-0.004
146091,-0.136,-1.554,-9.318,-0.005,0.01,-0.004
146194,-0.134,-1.547,-9.333,-0.006,0.009,-0.003
146297,-0.127,-1.568,-9.33,-0.005,0.01,-0.003
146400,-0.144,-1.561,-9.318,-0.005,0.009,-0.003
146503,-0.127,-1.563,-9.311,-0.005,0.01,-0.004
146606,-0.139,-1.573,-9.323,-0.005,0.009,-0.003
146709,-0.134,-1.575,-9.33,-0.005,0.01,-0.004
146812,-0.139,-1.566,-9.33,-0.005,0.01,-0.003
146915,-0.136,-1.566,-9.318,-0.005,0.009,-0.003
147018,-0.139,-1.575,-9.328,-0.005,0.008,-0.003
147121,-0.129,-1.537,-9.287,-0.005,0.01,-0.003
147224,-0.129,-1.551,-9.335,-0.005,0.01,-0.003
147327,-0.139,-1.563,-9.318,-0.005,0.01,-0.004
147430,-0.139,-1.568,-9.316,-0.006,0.009,-0.003
147533,-0.141,-1.575,-9.318,-0.006,0.009,-0.003
147636,-0.122,-1.563,-9.325,-0.006,0.01,-0.003
147739,-0.134,-1.554,-9.313,-0.005,0.009,-0.003
147842,-0.139,-1.551,-9.285,-0.006,0.009,-0.003
147945,-0.141,-1.554,-9.297,-0.006,0.01,-0.003
148048,-0.132,-1.563,-9.318,-0.005,0.01,-0.003
148151,-0.139,-1.551,-9.34,-0.005,0.009,-0.003
148254,-0.136,-1.566,-9.333,-0.006,0.009,-0.003
148357,-0.136,-1.573,-9.33,-0.005,0.009,-0.003
148460,-0.132,-1.563,-9.34,-0.005,0.009,-0.004
148563,-0.132,-1.58,-9.337,-0.005,0.01,-0.003
148666,-0.139,-1.566,-9.335,-0.005,0.009,-0.003
148769,-0.136,-1.566,-9.335,-0.006,0.009,-0.003
148872,-0.139,-1.561,-9.328,-0.005,0.01,-0.003
148975,-0.132,-1.563,-9.306,-0.006,0.009,-0.003
149078,-0.132,-1.556,-9.316,-0.006,0.009,-0.003
149181,-0.132,-1.566,-9.316,-0.005,0.009,-0.003
149284,-0.141,-1.561,-9.333,-0.005,0.009,-0.003
149387,-0.146,-1.568,-9.328,-0.005,0.009,-0.003
149490,-0.144,-1.563,-9.321,-0.005,0.009,-0.003
149593,-0.132,-1.563,-9.323,-0.005,0.009,-0.003
149696,-0.129,-1.563,-9.323,-0.006,0.01,-0.003
149799,-0.146,-1.566,-9.313,-0.005,0.01,-0.003
149902,-0.151,-1.554,-9.309,-0.005,0.009,-0.003
150005,-0.139,-1.549,-9.306,-0.005,0.009,-0.004
150108,-0.134,-1.554,-9.316,-0.006,0.009,-0.003
150211,-0.132,-1.563,-9.313,-0.006,0.01,-0.004
150314,-0.129,-1.568,-9.318,-0.005,0.009,-0.003
150417,-0.136,-1.563,-9.335,-0.005,0.01,-0.003
150520,-0.144,-1.573,-9.323,-0.005,0.009,-0.003
150623,-0.136,-1.563,-9.309,-0.005,0.009,-0.003
150726,-0.136,-1.566,-9.337,-0.006,0.009,-0.003
150829,-0.129,-1.566,-9.333,-0.005,0.009,-0.004
150932,-0.124,-1.566,-9.316,-0.005,0.01,-0.004
151035,-0.132,-1.554,-9.333,-0.005,0.01,-0.004
151138,-0.136,-1.556,-9.325,-0.006,0.009,-0.003
151241,-0.129,-1.563,-9.309,-0.006,0.009,-0.003
151344,-0.136,-1.556,-9.313,-0.005,0.009,-0.003
151447,-0.136,-1.571,-9.323,-0.005,0.009,-0.003
151550,-0.139,-1.559,-9.34,-0.005,0.009,-0.003
151653,-0.136,-1.571,-9.309,-0.005,0.01,-0.003
151756,-0.134,-1.559,-9.328,-0.006,0.009,-0.003
151859,-0.136,-1.575,-9.318,-0.005,0.01,-0.003
151962,-0.141,-1.568,-9.316,-0.006,0.009,-0.003
152065,-0.141,-1.566,-9.318,-0.005,0.009,-0.003
152168,-0.134,-1.556,-9.328,-0.005,0.009,-0.003
152271,-0.129,-1.559,-9.313,-0.006,0.009,-0.003
152374,-0.134,-1.561,-9.33,-0.005,0.009,-0.004
152477,-0.139,-1.559,-9.323,-0.006,0.01,-0.004
152580,-0.134,-1.568,-9.313,-0.005,0.01,-0.003
152683,-0.124,-1.561,-9.313,-0.005,0.009,-0.003
152786,-0.139,-1.554,-9.321,-0.006,0.01,-0.004
152889,-0.144,-1.561,-9.309,-0.006,0.009,-0.002
152992,-0.134,-1.561,-9.325,-0.005,0.01,-0.003
153095,-0.124,-1.556,-9.313,-0.005,0.01,-0.003
153198,-0.132,-1.554,-9.323,-0.005,0.01,-0.004
153301,-0.134,-1.561,-9.313,-0.005,0.009,-0.003
153404,-0.136,-1.568,-9.33,-0.006,0.01,-0.003
153507,-0.139,-1.561,-9.318,-0.006,0.01,-0.003
153610,-0.148,-1.561,-9.325,-0.006,0.009,-0.003
153713,-0.134,-1.556,-9.318,-0.006,0.009,-0.004
153816,-0.134,-1.556,-9.321,-0.005,0.009,-0.003
153919,-0.146,-1.559,-9.321,-0.005,0.01,-0.003
154022,-0.141,-1.561,-9.323,-0.005,0.01,-0.003
154125,-0.136,-1.563,-9.325,-0.005,0.01,-0.003
154228,-0.144,-1.573,-9.313,-0.005,0.009,-0.003
154331,-0.127,-1.561,-9.309,-0.006,0.01,-0.003
154434,-0.144,-1.563,-9.321,-0.005,0.009,-0.003
154537,-0.139,-1.556,-9.318,-0.005,0.01,-0.003
154640,-0.139,-1.561,-9.309,-0.005,0.01,-0.003
154743,-0.136,-1.563,-9.306,-0.005,0.009,-0.003
154846,-0.136,-1.561,-9.318,-0.005,0.009,-0.003
154949,-0.141,-1.559,-9.328,-0.005,0.009,-0.003
155052,-0.139,-1.561,-9.335,-0.005,0.009,-0.003
155155,-0.136,-1.554,-9.33,-0.005,0.009,-0.003
155258,-0.134,-1.559,-9.328,-0.005,0.009,-0.004
155361,-0.136,-1.551,-9.316,-0.005,0.01,-0.004
155464,-0.132,-1.566,-9.316,-0.005,0.009,-0.003
155567,-0.144,-1.556,-9.318,-0.005,0.009,-0.004
155670,-0.144,-1.563,-9.321,-0.006,0.009,-0.003
155773,-0.139,-1.559,-9.328,-0.005,0.01,-0.003
155876,-0.136,-1.566,-9.313,-0.006,0.009,-0.004
155979,-0.141,-1.563,-9.321,-0.006,0.009,-0.003
156082,-0.136,-1.559,-9.335,-0.006,0.009,-0.003
156185,-0.136,-1.556,-9.328,-0.006,0.009,-0.003
156288,-0.139,-1.568,-9.318,-0.006,0.01,-0.003
156391,-0.134,-1.563,-9.33,-0.005,0.009,-0.004
156494,-0.144,-1.554,-9.335,-0.006,0.009,-0.004
156597,-0.146,-1.566,-9.311,-0.005,0.01,-0.003
156700,-0.146,-1.556,-9.318,-0.005,0.009,-0.003
156803,-0.132,-1.563,-9.316,-0.006,0.009,-0.003
156906,-0.132,-1.554,-9.328,-0.006,0.009,-0.003
157009,-0.132,-1.561,-9.335,-0.005,0.009,-0.003
157112,-0.141,-1.568,-9.318,-0.006,0.009,-0.003
157215,-0.136,-1.563,-9.318,-0.005,0.009,-0.003
157318,-0.139,-1.568,-9.316,-0.005,0.01,-0.003
157421,-0.124,-1.568,-9.325,-0.005,0.009,-0.003
157524,-0.141,-1.563,-9.333,-0.006,0.009,-0.003
157627,-0.127,-1.554,-9.325,-0.005,0.009,-0.004
157730,-0.127,-1.561,-9.33,-0.005,0.009,-0.003
157833,-0.129,-1.563,-9.311,-0.005,0.009,-0.003
157936,-0.134,-1.566,-9.316,-0.005,0.01,-0.003
158039,-0.134,-1.566,-9.33,-0.005,0.009,-0.004
158142,-0.127,-1.566,-9.309,-0.005,0.009,-0.003
158245,-0.141,-1.556,-9.311,-0.005,0.009,-0.004
158348,-0.124,-1.556,-9.321,-0.005,0.01,-0.003
158451,-0.122,-1.556,-9.325,-0.005,0.01,-0.003
158554,-0.144,-1.566,-9.335,-0.005,0.01,-0.003
158657,-0.132,-1.561,-9.323,-0.005,0.009,-0.003
158760,-0.141,-1.559,-9.328,-0.006,0.009,-0.003
158863,-0.134,-1.559,-9.337,-0.006,0.01,-0.003
158966,-0.132,-1.561,-9.33,-0.005,0.009,-0.003
159069,-0.127,-1.563,-9.328,-0.005,0.009,-0.003
159172,-0.136,-1.566,-9.321,-0.005,0.009,-0.004
159275,-0.136,-1.566,-9.34,-0.006,0.009,-0.003
159378,-0.146,-1.551,-9.333,-0.005,0.009,-0.004
159481,-0.132,-1.561,-9.321,-0.005,0.01,-0.003
159584,-0.144,-1.549,-9.316,-0.005,0.009,-0.003
159687,-0.136,-1.563,-9.328,-0.005,0.009,-0.004
159790,-0.132,-1.551,-9.309,-0.006,0.009,-0.003
159893,-0.136,-1.561,-9.318,-0.006,0.01,-0.004
159996,-0.144,-1.563,-9.33,-0.005,0.009,-0.003
160099,-0.129,-1.566,-9.316,-0.005,0.01,-0.003
160202,-0.136,-1.561,-9.311,-0.005,0.01,-0.003
160305,-0.132,-1.556,-9.313,-0.005,0.009,-0.003
160408,-0.139,-1.561,-9.33,-0.005,0.009,-0.003
160511,-0.127,-1.559,-9.328,-0.006,0.009,-0.003
160614,-0.139,-1.561,-9.333,-0.006,0.009,-0.003
160717,-0.136,-1.561,-9.328,-0.005,0.009,-0.003
160820,-0.141,-1.566,-9.325,-0.005,0.009,-0.003
160923,-0.139,-1.566,-9.318,-0.005,0.009,-0.003
161026,-0.151,-1.561,-9.325,-0.005,0.01,-0.003
161129,-0.129,-1.559,-9.321,-0.005,0.009,-0.003
161232,-0.134,-1.563,-9.318,-0.005,0.01,-0.003
161335,-0.144,-1.568,-9.316,-0.005,0.009,-0.003
161438,-0.134,-1.573,-9.342,-0.005,0.01,-0.004
161541,-0.139,-1.554,-9.328,-0.006,0.01,-0.003
161644,-0.144,-1.561,-9.323,-0.005,0.009,-0.003
161747,-0.136,-1.561,-9.311,-0.005,0.009,-0.003
161850,-0.127,-1.563,-9.325,-0.005,0.009,-0.004
161953,-0.144,-1.559,-9.33,-0.006,0.01,-0.003
162056,-0.132,-1.566,-9.316,-0.005,0.009,-0.004
162159,-0.139,-1.566,-9.318,-0.005,0.009,-0.004
162262,-0.141,-1.551,-9.311,-0.005,0.01,-0.004
162365,-0.141,-1.559,-9.316,-0.005,0.009,-0.003
162468,-0.136,-1.566,-9.328,-0.006,0.009,-0.003
162571,-0.127,-1.554,-9.325,-0.005,0.009,-0.003
162674,-0.136,-1.559,-9.311,-0.005,0.009,-0.004
162777,-0.141,-1.556,-9.309,-0.005,0.009,-0.003
162880,-0.129,-1.561,-9.321,-0.005,0.009,-0.003
162983,-0.134,-1.571,-9.316,-0.005,0.01,-0.003
163086,-0.139,-1.561,-9.301,-0.005,0.009,-0.004
163189,-0.139,-1.561,-9.313,-0.005,0.009,-0.003
163292,-0.134,-1.563,-9.325,-0.006,0.009,-0.003
163395,-0.141,-1.563,-9.328,-0.005,0.009,-0.003
163498,-0.132,-1.561,-9.323,-0.005,0.01,-0.004
163601,-0.132,-1.547,-9.325,-0.005,0.01,-0.003
163704,-0.136,-1.559,-9.33,-0.005,0.009,-0.003
163807,-0.132,-1.566,-9.328,-0.005,0.009,-0.003
163910,-0.12,-1.571,-9.321,-0.005,0.009,-0.003
164013,-0.139,-1.573,-9.335,-0.005,0.01,-0.003
164116,-0.141,-1.568,-9.321,-0.005,0.009,-0.003
164219,-0.141,-1.568,-9.321,-0.005,0.01,-0.003
164322,-0.144,-1.566,-9.333,-0.005,0.01,-0.003
164425,-0.139,-1.566,-9.333,-0.006,0.01,-0.003
164528,-0.129,-1.556,-9.335,-0.005,0.01,-0.004
164631,-0.136,-1.563,-9.333,-0.005,0.01,-0.003
164734,-0.144,-1.566,-9.335,-0.005,0.01,-0.003
164837,-0.132,-1.568,-9.333,-0.005,0.01,-0.003
164940,-0.144,-1.573,-9.33,-0.006,0.01,-0.004
165043,-0.144,-1.559,-9.323,-0.005,0.009,-0.003
165146,-0.139,-1.568,-9.316,-0.005,0.01,-0.003
165249,-0.134,-1.563,-9.34,-0.005,0.01,-0.003
165352,-0.139,-1.559,-9.321,-0.005,0.01,-0.004
165455,-0.134,-1.561,-9.321,-0.006,0.009,-0.003
165558,-0.146,-1.563,-9.333,-0.006,0.01,-0.003
165661,-0.129,-1.566,-9.33,-0.006,0.009,-0.003
165764,-0.134,-1.561,-9.323,-0.005,0.009,-0.003
165867,-0.132,-1.556,-9.325,-0.005,0.01,-0.003
165970,-0.136,-1.563,-9.316,-0.006,0.01,-0.003
166073,-0.134,-1.566,-9.321,-0.005,0.009,-0.003
166176,-0.132,-1.568,-9.335,-0.005,0.01,-0.003
166279,-0.139,-1.561,-9.34,-0.005,0.009,-0.003
166382,-0.146,-1.568,-9.335,-0.005,0.01,-0.004
166485,-0.136,-1.556,-9.328,-0.005,0.01,-0.003
166588,-0.132,-1.561,-9.313,-0.005,0.01,-0.003
166691,-0.136,-1.571,-9.34,-0.005,0.009,-0.003
166794,-0.129,-1.563,-9.342,-0.006,0.01,-0.004
166897,-0.141,-1.571,-9.342,-0.006,0.009,-0.003
167000,-0.136,-1.568,-9.335,-0.005,0.01,-0.003
167103,-0.132,-1.566,-9.321,-0.005,0.009,-0.003
167206,-0.127,-1.571,-9.321,-0.005,0.01,-0.003
167309,-0.141,-1.559,-9.325,-0.005,0.01,-0.003
167412,-0.129,-1.563,-9.306,-0.006,0.01,-0.003
167515,-0.124,-1.561,-9.294,-0.005,0.009,-0.003
167618,-0.132,-1.561,-9.309,-0.005,0.01,-0.003
167721,-0.153,-1.554,-9.318,-0.005,0.01,-0.004
167824,-0.156,-1.563,-9.313,-0.006,0.01,-0.003
167927,-0.129,-1.566,-9.321,-0.005,0.009,-0.003
168030,-0.117,-1.551,-9.316,-0.005,0.009,-0.003
168133,-0.134,-1.561,-9.311,-0.005,0.01,-0.003
168236,-0.144,-1.561,-9.316,-0.006,0.01,-0.004
168339,-0.139,-1.561,-9.321,-0.005,0.01,-0.003
168442,-0.127,-1.561,-9.328,-0.006,0.01,-0.003
168545,-0.124,-1.566,-9.323,-0.006,0.01,-0.003
168648,-0.146,-1.556,-9.313,-0.005,0.01,-0.003
168751,-0.132,-1.559,-9.328,-0.005,0.009,-0.003
168854,-0.136,-1.563,-9.328,-0.006,0.01,-0.003
168957,-0.134,-1.566,-9.328,-0.005,0.01,-0.003
169060,-0.136,-1.566,-9.328,-0.006,0.009,-0.004
169163,-0.146,-1.563,-9.325,-0.006,0.009,-0.003
169266,-0.139,-1.559,-9.313,-0.005,0.009,-0.003
169369,-0.127,-1.561,-9.335,-0.006,0.01,-0.003
169472,-0.124,-1.568,-9.304,-0.005,0.01,-0.003
169575,-0.129,-1.561,-9.33,-0.005,0.01,-0.003
169678,-0.144,-1.566,-9.318,-0.005,0.009,-0.004
169781,-0.144,-1.571,-9.318,-0.006,0.01,-0.003
169884,-0.134,-1.551,-9.316,-0.005,0.01,-0.003
169987,-0.129,-1.556,-9.325,-0.005,0.009,-0.003
170090,-0.136,-1.561,-9.335,-0.006,0.01,-0.003
170193,-0.141,-1.559,-9.323,-0.006,0.01,-0.003
170296,-0.144,-1.556,-9.321,-0.005,0.01,-0.003
170399,-0.132,-1.571,-9.333,-0.005,0.01,-0.003
170502,-0.129,-1.583,-9.33,-0.006,0.009,-0.004
170605,-0.132,-1.571,-9.321,-0.005,0.009,-0.003
170708,-0.127,-1.571,-9.335,-0.006,0.009,-0.004
170811,-0.129,-1.556,-9.321,-0.006,0.01,-0.003
170914,-0.141,-1.551,-9.33,-0.005,0.009,-0.003
171017,-0.141,-1.559,-9.311,-0.005,0.009,-0.003
171120,-0.134,-1.554,-9.33,-0.005,0.009,-0.003
171223,-0.134,-1.559,-9.325,-0.005,0.01,-0.003
171326,-0.136,-1.573,-9.325,-0.005,0.009,-0.003
171429,-0.124,-1.561,-9.328,-0.005,0.009,-0.003
171532,-0.139,-1.568,-9.311,-0.006,0.01,-0.003
171635,-0.134,-1.573,-9.33,-0.005,0.009,-0.004
171738,-0.141,-1.566,-9.318,-0.005,0.009,-0.003
171841,-0.127,-1.559,-9.316,-0.005,0.009,-0.003
171944,-0.134,-1.563,-9.316,-0.005,0.01,-0.003
172047,-0.127,-1.554,-9.328,-0.005,0.01,-0.003
172150,-0.132,-1.554,-9.318,-0.005,0.009,-0.004
172253,-0.141,-1.568,-9.318,-0.005,0.01,-0.003
172356,-0.127,-1.578,-9.328,-0.006,0.009,-0.003
172459,-0.122,-1.559,-9.316,-0.005,0.01,-0.004
172562,-0.136,-1.561,-9.333,-0.005,0.009,-0.003
172665,-0.134,-1.566,-9.313,-0.006,0.009,-0.004
172768,-0.124,-1.568,-9.321,-0.005,0.009,-0.004
172871,-0.134,-1.561,-9.316,-0.005,0.009,-0.003
172974,-0.144,-1.556,-9.318,-0.006,0.01,-0.003
173077,-0.144,-1.554,-9.328,-0.005,0.01,-0.003
173180,-0.139,-1.556,-9.313,-0.006,0.009,-0.003
173283,-0.136,-1.568,-9.335,-0.006,0.009,-0.003
173386,-0.136,-1.568,-9.318,-0.005,0.009,-0.003
173489,-0.136,-1.561,-9.313,-0.005,0.01,-0.003
173592,-0.139,-1.561,-9.316,-0.006,0.01,-0.003
173695,-0.139,-1.568,-9.325,-0.005,0.01,-0.003
173798,-0.141,-1.559,-9.325,-0.005,0.01,-0.003
173901,-0.141,-1.559,-9.316,-0.006,0.01,-0.004
174004,-0.136,-1.556,-9.325,-0.005,0.01,-0.003
174107,-0.122,-1.563,-9.328,-0.006,0.009,-0.004
174210,-0.132,-1.554,-9.325,-0.005,0.01,-0.004
174313,-0.129,-1.561,-9.321,-0.005,0.009,-0.003
174416,-0.139,-1.573,-9.323,-0.005,0.009,-0.004
174519,-0.139,-1.563,-9.316,-0.005,0.009,-0.004
174622,-0.129,-1.559,-9.323,-0.006,0.01,-0.003
174725,-0.144,-1.561,-9.309,-0.005,0.009,-0.003
174828,-0.127,-1.561,-9.325,-0.005,0.009,-0.003
174931,-0.141,-1.561,-9.318,-0.006,0.01,-0.004
175034,-0.136,-1.563,-9.321,-0.005,0.01,-0.003
175137,-0.127,-1.559,-9.323,-0.006,0.01,-0.003
175240,-0.136,-1.566,-9.306,-0.006,0.009,-0.004
175343,-0.134,-1.554,-9.321,-0.006,0.009,-0.003
175446,-0.132,-1.563,-9.318,-0.005,0.01,-0.003
175549,-0.127,-1.566,-9.321,-0.005,0.009,-0.003
175652,-0.139,-1.563,-9.313,-0.005,0.01,-0.003
175755,-0.139,-1.566,-9.335,-0.006,0.01,-0.003
175858,-0.136,-1.556,-9.325,-0.006,0.01,-0.003
175961,-0.134,-1.563,-9.323,-0.005,0.009,-0.003
176064,-0.144,-1.554,-9.318,-0.005,0.009,-0.003
176167,-0.139,-1.554,-9.313,-0.005,0.009,-0.003
176270,-0.134,-1.554,-9.335,-0.005,0.009,-0.003
176373,-0.136,-1.556,-9.325,-0.006,0.01,-0.004
176476,-0.136,-1.561,-9.33,-0.005,0.009,-0.004
176579,-0.139,-1.561,-9.316,-0.005,0.009,-0.003
176682,-0.132,-1.563,-9.328,-0.005,0.009,-0.004
176785,-0.134,-1.561,-9.321,-0.005,0.01,-0.003
176888,-0.141,-1.559,-9.316,-0.005,0.01,-0.004
176991,-0.129,-1.556,-9.311,-0.005,0.01,-0.004
177094,-0.136,-1.554,-9.328,-0.005,0.01,-0.003
177197,-0.132,-1.556,-9.321,-0.005,0.009,-0.003
177300,-0.134,-1.568,-9.313,-0.006,0.01,-0.003
177403,-0.136,-1.556,-9.318,-0.006,0.01,-0.003
177506,-0.136,-1.556,-9.316,-0.006,0.009,-0.003
177609,-0.148,-1.573,-9.325,-0.005,0.01,-0.003
177712,-0.132,-1.568,-9.325,-0.005,0.009,-0.003
177815,-0.148,-1.563,-9.328,-0.005,0.01,-0.004
177918,-0.134,-1.573,-9.345,-0.005,0.01,-0.004
178021,-0.124,-1.571,-9.325,-0.006,0.01,-0.004
178124,-0.132,-1.559,-9.325,-0.006,0.01,-0.003
178227,-0.139,-1.556,-9.33,-0.006,0.009,-0.004
178330,-0.136,-1.559,-9.325,-0.005,0.009,-0.003
178433,-0.136,-1.556,-9.321,-0.006,0.01,-0.003
178536,-0.134,-1.563,-9.321,-0.006,0.01,-0.004
178639,-0.136,-1.549,-9.323,-0.005,0.009,-0.003
178742,-0.136,-1.561,-9.337,-0.005,0.009,-0.003
178845,-0.146,-1.559,-9.325,-0.005,0.009,-0.003
178948,-0.136,-1.556,-9.333,-0.006,0.009,-0.003
179051,-0.098,-1.568,-9.39,-0.005,0.011,-0.004
179154,-0.156,-1.551,-9.309,-0.005,0.009,-0.004
179257,-0.129,-1.554,-9.309,-0.005,0.009,-0.003
179360,-0.129,-1.568,-9.304,-0.005,0.009,-0.003
179463,-0.144,-1.559,-9.333,-0.006,0.01,-0.003
179566,-0.134,-1.556,-9.328,-0.005,0.01,-0.003
179669,-0.129,-1.563,-9.316,-0.005,0.01,-0.003
179772,-0.141,-1.568,-9.306,-0.005,0.01,-0.004
179875,-0.132,-1.568,-9.337,-0.005,0.01,-0.003
179978,-0.134,-1.561,-9.328,-0.006,0.009,-0.003
180081,-0.139,-1.563,-9.311,-0.005,0.009,-0.004
180184,-0.124,-1.566,-9.321,-0.005,0.01,-0.004
180287,-0.139,-1.559,-9.321,-0.006,0.01,-0.003
180390,-0.136,-1.568,-9.325,-0.006,0.009,-0.003
180493,-0.144,-1.568,-9.321,-0.006,0.01,-0.003
180596,-0.134,-1.561,-9.328,-0.005,0.01,-0.003
180699,-0.134,-1.559,-9.309,-0.005,0.01,-0.003
180802,-0.132,-1.556,-9.313,-0.005,0.009,-0.003
180905,-0.139,-1.571,-9.313,-0.005,0.009,-0.003
181008,-0.146,-1.571,-9.318,-0.005,0.01,-0.003
181111,-0.144,-1.568,-9.335,-0.005,0.01,-0.003
181214,-0.134,-1.559,-9.345,-0.006,0.01,-0.003
181317,-0.134,-1.573,-9.323,-0.005,0.009,-0.003
181420,-0.141,-1.556,-9.318,-0.005,0.01,-0.003
181523,-0.134,-1.566,-9.311,-0.005,0.01,-0.003
181626,-0.132,-1.556,-9.313,-0.005,0.01,-0.003
181729,-0.139,-1.556,-9.33,-0.005,0.009,-0.004
181832,-0.132,-1.561,-9.325,-0.005,0.009,-0.003
181935,-0.129,-1.566,-9.34,-0.005,0.01,-0.003
182038,-0.136,-1.573,-9.313,-0.005,0.01,-0.003
182141,-0.141,-1.556,-9.318,-0.005,0.009,-0.003
182244,-0.136,-1.566,-9.328,-0.006,0.01,-0.004
182347,-0.136,-1.554,-9.321,-0.006,0.009,-0.003
182450,-0.122,-1.547,-9.323,-0.006,0.009,-0.003
182553,-0.132,-1.549,-9.328,-0.005,0.009,-0.003
182656,-0.134,-1.556,-9.33,-0.005,0.01,-0.004
182759,-0.153,-1.561,-9.313,-0.005,0.009,-0.003
182862,-0.153,-1.563,-9.316,-0.006,0.01,-0.003
182965,-0.136,-1.568,-9.323,-0.005,0.009,-0.003
183068,-0.139,-1.556,-9.321,-0.005,0.01,-0.003
183171,-0.136,-1.559,-9.304,-0.005,0.01,-0.003
183274,-0.124,-1.554,-9.325,-0.006,0.01,-0.003
183377,-0.129,-1.551,-9.316,-0.005,0.01,-0.003
183480,-0.136,-1.554,-9.316,-0.006,0.009,-0.003
183583,-0.136,-1.563,-9.321,-0.005,0.009,-0.003
183686,-0.139,-1.554,-9.318,-0.005,0.01,-0.003
183789,-0.134,-1.561,-9.325,-0.005,0.01,-0.004
183892,-0.141,-1.571,-9.33,-0.005,0.01,-0.003
183995,-0.127,-1.575,-9.33,-0.005,0.01,-0.003
184098,-0.127,-1.563,-9.323,-0.005,0.01,-0.003
184201,-0.129,-1.556,-9.33,-0.006,0.01,-0.004
184304,-0.132,-1.568,-9.304,-0.005,0.009,-0.004
184407,-0.148,-1.549,-9.306,-0.006,0.01,-0.003
184510,-0.134,-1.563,-9.316,-0.005,0.009,-0.003
184613,-0.134,-1.561,-9.306,-0.005,0.009,-0.004
184716,-0.132,-1.568,-9.316,-0.005,0.009,-0.003
184819,-0.146,-1.573,-9.313,-0.006,0.009,-0.003
184922,-0.148,-1.571,-9.321,-0.005,0.01,-0.003
185025,-0.129,-1.561,-9.325,-0.005,0.009,-0.004
185128,-0.124,-1.563,-9.321,-0.005,0.009,-0.003
185231,-0.127,-1.554,-9.33,-0.005,0.01,-0.003
185334,-0.134,-1.551,-9.325,-0.005,0.01,-0.003
185437,-0.134,-1.563,-9.313,-0.005,0.01,-0.003
185540,-0.148,-1.559,-9.311,-0.005,0.01,-0.003
185643,-0.134,-1.571,-9.325,-0.005,0.009,-0.004
185746,-0.144,-1.568,-9.33,-0.006,0.01,-0.004
185849,-0.134,-1.573,-9.328,-0.006,0.009,-0.004
185952,-0.139,-1.575,-9.323,-0.005,0.01,-0.003
186055,-0.136,-1.563,-9.325,-0.006,0.009,-0.003
186158,-0.144,-1.566,-9.33,-0.006,0.009,-0.003
186261,-0.129,-1.559,-9.325,-0.005,0.009,-0.003
186364,-0.136,-1.554,-9.316,-0.005,0.009,-0.004
186467,-0.129,-1.563,-9.321,-0.005,0.009,-0.003
186570,-0.132,-1.561,-9.323,-0.006,0.009,-0.003
186673,-0.129,-1.571,-9.321,-0.006,0.009,-0.003
186776,-0.141,-1.568,-9.321,-0.005,0.009,-0.004
186879,-0.144,-1.568,-9.313,-0.005,0.009,-0.003
186982,-0.136,-1.556,-9.328,-0.006,0.01,-0.003
187085,-0.124,-1.551,-9.316,-0.005,0.01,-0.003
187188,-0.132,-1.554,-9.325,-0.005,0.009,-0.003
187291,-0.144,-1.563,-9.321,-0.005,0.009,-0.004
187394,-0.139,-1.563,-9.328,-0.005,0.009,-0.003
187497,-0.134,-1.566,-9.313,-0.005,0.009,-0.004
187600,-0.144,-1.563,-9.328,-0.006,0.009,-0.003
187703,-0.136,-1.566,-9.323,-0.005,0.009,-0.003
187806,-0.134,-1.566,-9.325,-0.006,0.01,-0.004
187909,-0.141,-1.559,-9.318,-0.006,0.01,-0.003
188012,-0.141,-1.561,-9.323,-0.005,0.009,-0.004
188115,-0.132,-1.566,-9.34,-0.005,0.01,-0.003
188218,-0.136,-1.554,-9.323,-0.005,0.01,-0.003
188321,-0.127,-1.568,-9.328,-0.005,0.009,-0.003
188424,-0.134,-1.554,-9.323,-0.005,0.01,-0.003
188527,-0.141,-1.563,-9.328,-0.005,0.009,-0.004
188630,-0.139,-1.566,-9.325,-0.005,0.01,-0.003
188733,-0.136,-1.561,-9.318,-0.005,0.009,-0.004
188836,-0.146,-1.568,-9.328,-0.006,0.01,-0.003
188939,-0.134,-1.573,-9.316,-0.006,0.01,-0.003
189042,-0.134,-1.559,-9.337,-0.006,0.009,-0.004
189145,-0.141,-1.561,-9.325,-0.006,0.009,-0.003
189248,-0.136,-1.556,-9.323,-0.005,0.01,-0.003
189351,-0.134,-1.561,-9.318,-0.006,0.01,-0.003
189454,-0.144,-1.573,-9.328,-0.005,0.01,-0.003
189557,-0.136,-1.568,-9.328,-0.006,0.01,-0.003
189660,-0.124,-1.566,-9.323,-0.005,0.01,-0.003
189763,-0.122,-1.573,-9.323,-0.006,0.01,-0.003
189866,-0.141,-1.551,-9.325,-0.006,0.009,-0.003
189969,-0.139,-1.556,-9.337,-0.006,0.009,-0.003
190072,-0.124,-1.563,-9.335,-0.006,0.009,-0.003
190175,-0.146,-1.561,-9.323,-0.006,0.01,-0.003
190278,-0.141,-1.561,-9.323,-0.006,0.01,-0.003
190381,-0.141,-1.575,-9.335,-0.005,0.01,-0.003
190484,-0.129,-1.566,-9.333,-0.006,0.01,-0.003
190587,-0.134,-1.571,-9.313,-0.006,0.01,-0.003
190690,-0.141,-1.568,-9.313,-0.005,0.01,-0.004
190793,-0.132,-1.561,-9.323,-0.005,0.009,-0.004
190896,-0.141,-1.568,-9.318,-0.005,0.01,-0.003
190999,-0.141,-1.566,-9.316,-0.005,0.01,-0.003
191102,-0.144,-1.561,-9.321,-0.006,0.009,-0.004
191205,-0.132,-1.554,-9.34,-0.005,0.009,-0.003
191308,-0.127,-1.568,-9.333,-0.005,0.01,-0.003
191411,-0.134,-1.563,-9.325,-0.005,0.01,-0.003
191514,-0.136,-1.566,-9.33,-0.005,0.01,-0.003
191617,-0.136,-1.561,-9.33,-0.005,0.009,-0.003
191720,-0.144,-1.563,-9.321,-0.005,0.009,-0.004
191823,-0.146,-1.566,-9.328,-0.006,0.01,-0.003
191926,-0.132,-1.566,-9.337,-0.006,0.01,-0.004
192029,-0.124,-1.563,-9.323,-0.005,0.01,-0.003
192132,-0.134,-1.554,-9.325,-0.006,0.01,-0.003
192235,-0.139,-1.563,-9.328,-0.005,0.009,-0.003
192338,-0.136,-1.563,-9.325,-0.005,0.009,-0.003
192441,-0.132,-1.549,-9.33,-0.005,0.009,-0.003
192544,-0.127,-1.563,-9.316,-0.005,0.01,-0.003
192647,-0.139,-1.568,-9.323,-0.006,0.01,-0.004
192750,-0.141,-1.571,-9.318,-0.006,0.009,-0.003
192853,-0.139,-1.566,-9.318,-0.005,0.009,-0.003
192956,-0.136,-1.566,-9.34,-0.005,0.01,-0.003
193059,-0.141,-1.566,-9.316,-0.006,0.009,-0.003
193162,-0.132,-1.561,-9.333,-0.005,0.01,-0.003
193265,-0.139,-1.559,-9.323,-0.006,0.01,-0.003
193368,-0.134,-1.563,-9.333,-0.005,0.009,-0.003
193471,-0.141,-1.556,-9.325,-0.005,0.009,-0.003
193574,-0.132,-1.563,-9.328,-0.006,0.009,-0.003
193677,-0.132,-1.573,-9.333,-0.005,0.01,-0.004
193780,-0.136,-1.561,-9.333,-0.005,0.009,-0.004
193883,-0.129,-1.559,-9.323,-0.005,0.009,-0.003
193986,-0.136,-1.554,-9.306,-0.005,0.01,-0.003
194089,-0.136,-1.563,-9.328,-0.005,0.009,-0.003
194192,-0.136,-1.561,-9.321,-0.005,0.01,-0.003
194295,-0.132,-1.568,-9.337,-0.005,0.01,-0.003
194398,-0.132,-1.568,-9.325,-0.005,0.009,-0.003
194501,-0.134,-1.554,-9.323,-0.005,0.01,-0.003
194604,-0.136,-1.563,-9.306,-0.006,0.01,-0.004
194707,-0.141,-1.563,-9.299,-0.005,0.01,-0.003
194810,-0.141,-1.571,-9.316,-0.006,0.01,-0.003
194913,-0.134,-1.568,-9.33,-0.005,0.01,-0.003
195016,-0.146,-1.563,-9.325,-0.005,0.01,-0.003
195119,-0.144,-1.559,-9.325,-0.006,0.009,-0.003
195222,-0.134,-1.554,-9.318,-0.005,0.009,-0.003
195325,-0.129,-1.549,-9.311,-0.005,0.009,-0.003
195428,-0.129,-1.559,-9.33,-0.005,0.01,-0.003
195531,-0.127,-1.566,-9.335,-0.006,0.01,-0.004
195634,-0.144,-1.571,-9.325,-0.005,0.01,-0.003
195737,-0.132,-1.571,-9.323,-0.005,0.009,-0.003
195840,-0.141,-1.556,-9.323,-0.005,0.009,-0.003
195943,-0.132,-1.575,-9.321,-0.006,0.01,-0.003
196046,-0.136,-1.554,-9.321,-0.005,0.01,-0.003
196149,-0.141,-1.556,-9.318,-0.006,0.01,-0.003
196252,-0.127,-1.549,-9.33,-0.006,0.01,-0.003
196355,-0.127,-1.559,-9.318,-0.005,0.009,-0.003
196458,-0.141,-1.563,-9.328,-0.006,0.009,-0.004
196561,-0.129,-1.561,-9.328,-0.005,0.009,-0.004
196664,-0.134,-1.566,-9.309,-0.006,0.01,-0.003
196767,-0.134,-1.571,-9.321,-0.006,0.01,-0.004
196870,-0.136,-1.566,-9.33,-0.005,0.01,-0.003
196973,-0.134,-1.566,-9.328,-0.006,0.01,-0.003
197076,-0.139,-1.561,-9.328,-0.005,0.01,-0.004
197179,-0.124,-1.561,-9.33,-0.005,0.009,-0.003
197282,-0.146,-1.549,-9.325,-0.005,0.009,-0.004
197385,-0.141,-1.551,-9.325,-0.005,0.009,-0.004
197488,-0.122,-1.563,-9.325,-0.006,0.009,-0.004
197591,-0.117,-1.566,-9.34,-0.006,0.009,-0.003
197694,-0.139,-1.561,-9.328,-0.005,0.01,-0.003
197797,-0.144,-1.561,-9.321,-0.005,0.009,-0.004
197900,-0.139,-1.561,-9.328,-0.005,0.01,-0.003
198003,-0.129,-1.566,-9.328,-0.005,0.009,-0.003
198106,-0.129,-1.568,-9.313,-0.005,0.01,-0.004
198209,-0.124,-1.561,-9.325,-0.005,0.009,-0.003
198312,-0.127,-1.561,-9.335,-0.006,0.009,-0.003
198415,-0.144,-1.559,-9.325,-0.006,0.01,-0.003
198518,-0.139,-1.561,-9.328,-0.005,0.01,-0.003
198621,-0.134,-1.561,-9.328,-0.006,0.009,-0.003
198724,-0.132,-1.58,-9.306,-0.005,0.01,-0.003
198827,-0.134,-1.568,-9.325,-0.005,0.01,-0.003
198930,-0.134,-1.566,-9.333,-0.006,0.01,-0.004
199033,-0.139,-1.571,-9.328,-0.005,0.009,-0.003
199136,-0.141,-1.568,-9.325,-0.005,0.009,-0.003
199239,-0.144,-1.551,-9.337,-0.006,0.009,-0.003
199342,-0.129,-1.556,-9.333,-0.006,0.009,-0.003
199445,-0.134,-1.566,-9.311,-0.005,0.01,-0.003
199548,-0.127,-1.559,-9.323,-0.005,0.009,-0.003
199651,-0.144,-1.551,-9.321,-0.005,0.009,-0.004
199754,-0.132,-1.575,-9.323,-0.005,0.009,-0.004
199857,-0.144,-1.563,-9.318,-0.005,0.009,-0.003
199960,-0.127,-1.568,-9.299,-0.005,0.009,-0.003
200063,-0.127,-1.554,-9.335,-0.005,0.009,-0.003
200166,-0.132,-1.551,-9.335,-0.006,0.01,-0.003
200269,-0.132,-1.566,-9.328,-0.005,0.009,-0.003
200372,-0.139,-1.559,-9.325,-0.006,0.009,-0.003
200475,-0.136,-1.566,-9.325,-0.005,0.01,-0.003
200578,-0.139,-1.566,-9.333,-0.005,0.01,-0.003
200681,-0.136,-1.561,-9.321,-0.006,0.009,-0.003
200784,-0.144,-1.571,-9.321,-0.005,0.009,-0.003
200887,-0.134,-1.556,-9.328,-0.005,0.009,-0.003
200990,-0.144,-1.566,-9.325,-0.006,0.01,-0.004
201093,-0.134,-1.575,-9.337,-0.006,0.009,-0.003
201196,-0.132,-1.575,-9.335,-0.005,0.01,-0.003
201299,-0.129,-1.563,-9.325,-0.005,0.01,-0.004
201402,-0.136,-1.556,-9.34,-0.005,0.009,-0.003
201505,-0.134,-1.559,-9.321,-0.005,0.01,-0.003
201608,-0.134,-1.551,-9.33,-0.006,0.01,-0.003
201711,-0.132,-1.559,-9.325,-0.006,0.01,-0.003
201814,-0.134,-1.563,-9.318,-0.005,0.009,-0.003
201917,-0.148,-1.559,-9.325,-0.005,0.01,-0.003
202020,-0.134,-1.573,-9.311,-0.005,0.01,-0.003
202123,-0.129,-1.563,-9.333,-0.005,0.009,-0.003
202226,-0.136,-1.568,-9.328,-0.005,0.01,-0.004
202329,-0.132,-1.568,-9.323,-0.005,0.01,-0.003
202432,-0.148,-1.554,-9.328,-0.005,0.01,-0.003
202535,-0.127,-1.554,-9.323,-0.006,0.009,-0.003
202638,-0.134,-1.563,-9.328,-0.005,0.009,-0.003
202741,-0.139,-1.573,-9.316,-0.006,0.009,-0.003
202844,-0.134,-1.566,-9.318,-0.005,0.01,-0.003
202947,-0.129,-1.556,-9.321,-0.005,0.009,-0.003
203050,-0.144,-1.561,-9.323,-0.005,0.01,-0.003
203153,-0.141,-1.566,-9.335,-0.005,0.009,-0.003
203256,-0.144,-1.566,-9.333,-0.005,0.01,-0.003
203359,-0.139,-1.575,-9.325,-0.005,0.01,-0.003
203462,-0.132,-1.554,-9.33,-0.005,0.01,-0.003
203565,-0.139,-1.547,-9.316,-0.005,0.01,-0.003
203668,-0.136,-1.556,-9.333,-0.005,0.01,-0.003
203771,-0.136,-1.561,-9.323,-0.005,0.01,-0.003
203874,-0.134,-1.566,-9.325,-0.005,0.009,-0.004
203977,-0.132,-1.566,-9.311,-0.006,0.01,-0.003
204080,-0.134,-1.559,-9.311,-0.005,0.01,-0.003
204183,-0.139,-1.559,-9.321,-0.006,0.01,-0.003
204286,-0.165,-1.551,-9.254,-0.005,0.01,-0.003
204389,-0.134,-1.571,-9.333,-0.005,0.009,-0.004
204492,-0.139,-1.561,-9.323,-0.005,0.009,-0.003
204595,-0.134,-1.539,-9.333,-0.005,0.009,-0.003
204698,-0.132,-1.559,-9.311,-0.005,0.009,-0.004
204801,-0.134,-1.559,-9.297,-0.005,0.01,-0.003
204904,-0.132,-1.547,-9.328,-0.006,0.01,-0.003
205007,-0.144,-1.559,-9.321,-0.005,0.009,-0.003
205110,-0.134,-1.559,-9.323,-0.005,0.01,-0.004
205213,-0.134,-1.559,-9.323,-0.005,0.01,-0.004
205316,-0.136,-1.561,-9.325,-0.006,0.009,-0.003
205419,-0.139,-1.571,-9.304,-0.005,0.01,-0.003
205522,-0.141,-1.556,-9.33,-0.005,0.009,-0.003
205625,-0.136,-1.556,-9.313,-0.005,0.01,-0.004
205728,-0.132,-1.561,-9.316,-0.006,0.009,-0.003
205831,-0.136,-1.556,-9.316,-0.005,0.01,-0.003
205934,-0.139,-1.556,-9.323,-0.005,0.009,-0.003
206037,-0.146,-1.556,-9.323,-0.006,0.009,-0.004
206140,-0.136,-1.561,-9.313,-0.005,0.01,-0.003
206243,-0.144,-1.563,-9.34,-0.005,0.01,-0.003
206346,-0.144,-1.563,-9.328,-0.006,0.01,-0.003
206449,-0.129,-1.566,-9.325,-0.005,0.009,-0.003
206552,-0.136,-1.559,-9.333,-0.006,0.01,-0.003
206655,-0.132,-1.566,-9.34,-0.005,0.01,-0.003
206758,-0.127,-1.566,-9.33,-0.005,0.01,-0.003
206861,-0.139,-1.571,-9.321,-0.006,0.009,-0.004
206964,-0.144,-1.549,-9.325,-0.006,0.009,-0.003
207067,-0.141,-1.554,-9.318,-0.005,0.009,-0.004
207170,-0.139,-1.554,-9.323,-0.006,0.009,-0.004
207273,-0.134,-1.568,-9.321,-0.006,0.009,-0.003
207376,-0.139,-1.563,-9.325,-0.005,0.009,-0.003
207479,-0.144,-1.578,-9.318,-0.006,0.009,-0.003
207582,-0.129,-1.571,-9.33,-0.005,0.009,-0.003
207685,-0.139,-1.571,-9.325,-0.005,0.01,-0.003
207788,-0.134,-1.566,-9.325,-0.005,0.01,-0.003
207891,-0.136,-1.561,-9.328,-0.005,0.01,-0.004
207994,-0.136,-1.554,-9.311,-0.005,0.009,-0.003
208097,-0.129,-1.568,-9.325,-0.005,0.01,-0.003
208200,-0.136,-1.547,-9.33,-0.005,0.01,-0.004
208303,-0.134,-1.549,-9.325,-0.005,0.009,-0.004
208406,-0.146,-1.561,-9.337,-0.006,0.009,-0.003
208509,-0.134,-1.556,-9.313,-0.005,0.01,-0.003
208612,-0.134,-1.563,-9.311,-0.005,0.01,-0.003
208715,-0.141,-1.551,-9.323,-0.005,0.01,-0.004
208818,-0.132,-1.561,-9.318,-0.006,0.009,-0.003
208921,-0.139,-1.563,-9.325,-0.005,0.01,-0.003
209024,-0.141,-1.571,-9.321,-0.006,0.009,-0.004
209127,-0.129,-1.561,-9.342,-0.005,0.01,-0.003
209230,-0.134,-1.566,-9.323,-0.005,0.01,-0.003
209333,-0.129,-1.559,-9.316,-0.005,0.009,-0.003
209436,-0.146,-1.568,-9.323,-0.005,0.01,-0.003
209539,-0.141,-1.559,-9.318,-0.005,0.009,-0.003
209642,-0.139,-1.561,-9.335,-0.006,0.01,-0.003
209745,-0.144,-1.559,-9.316,-0.005,0.009,-0.003
209848,-0.132,-1.563,-9.323,-0.005,0.009,-0.004
209951,-0.132,-1.556,-9.33,-0.005,0.01,-0.003
210054,-0.146,-1.554,-9.294,-0.005,0.01,-0.003
210157,-0.141,-1.559,-9.325,-0.005,0.009,-0.004
210260,-0.141,-1.566,-9.328,-0.005,0.01,-0.004
210363,-0.139,-1.561,-9.321,-0.006,0.01,-0.003
210466,-0.146,-1.559,-9.316,-0.005,0.009,-0.003
210569,-0.139,-1.563,-9.304,-0.006,0.009,-0.003
210672,-0.124,-1.559,-9.345,-0.005,0.01,-0.003
210775,-0.127,-1.568,-9.333,-0.005,0.009,-0.003
210878,-0.124,-1.566,-9.33,-0.005,0.01,-0.003
210981,-0.144,-1.561,-9.311,-0.005,0.01,-0.003
211084,-0.139,-1.568,-9.328,-0.005,0.01,-0.003
211187,-0.136,-1.568,-9.342,-0.005,0.01,-0.003
211290,-0.132,-1.559,-9.337,-0.005,0.009,-0.003
211393,-0.134,-1.556,-9.321,-0.005,0.009,-0.003
211496,-0.139,-1.571,-9.316,-0.006,0.009,-0.004
211599,-0.139,-1.551,-9.337,-0.005,0.009,-0.004
211702,-0.139,-1.566,-9.33,-0.006,0.01,-0.004
211805,-0.136,-1.563,-9.328,-0.006,0.01,-0.003
211908,-0.134,-1.568,-9.333,-0.005,0.01,-0.003
212011,-0.146,-1.559,-9.316,-0.006,0.009,-0.003
212114,-0.134,-1.566,-9.321,-0.005,0.01,-0.003
212217,-0.136,-1.568,-9.325,-0.005,0.01,-0.003
212320,-0.136,-1.556,-9.323,-0.005,0.01,-0.003
212423,-0.139,-1.566,-9.318,-0.005,0.009,-0.004
212526,-0.127,-1.568,-9.313,-0.005,0.009,-0.004
212629,-0.136,-1.563,-9.325,-0.005,0.009,-0.003
212732,-0.141,-1.554,-9.328,-0.006,0.01,-0.003
212835,-0.148,-1.554,-9.335,-0.005,0.009,-0.003
212938,-0.144,-1.559,-9.318,-0.005,0.009,-0.003
213041,-0.139,-1.559,-9.318,-0.005,0.009,-0.003
213144,-0.148,-1.568,-9.321,-0.005,0.01,-0.004
213247,-0.136,-1.573,-9.318,-0.005,0.01,-0.003
213350,-0.124,-1.568,-9.316,-0.005,0.009,-0.003
213453,-0.139,-1.566,-9.325,-0.006,0.01,-0.004
213556,-0.136,-1.561,-9.316,-0.005,0.009,-0.004
213659,-0.132,-1.551,-9.321,-0.005,0.009,-0.003
213762,-0.141,-1.563,-9.325,-0.005,0.01,-0.004
213865,-0.141,-1.566,-9.328,-0.005,0.01,-0.003
213968,-0.141,-1.556,-9.323,-0.006,0.01,-0.004
214071,-0.134,-1.556,-9.333,-0.005,0.009,-0.003
214174,-0.136,-1.556,-9.316,-0.005,0.009,-0.004
214277,-0.139,-1.556,-9.335,-0.005,0.01,-0.003
214380,-0.136,-1.568,-9.328,-0.005,0.009,-0.003
214483,-0.141,-1.571,-9.325,-0.006,0.01,-0.003
214586,-0.134,-1.566,-9.325,-0.005,0.01,-0.004
214689,-0.146,-1.568,-9.321,-0.005,0.01,-0.004
214792,-0.141,-1.559,-9.337,-0.005,0.009,-0.003
214895,-0.134,-1.559,-9.325,-0.005,0.009,-0.003
214998,-0.132,-1.559,-9.313,-0.006,0.01,-0.003
215101,-0.134,-1.563,-9.323,-0.006,0.009,-0.004
215204,-0.129,-1.559,-9.318,-0.006,0.01,-0.003
215307,-0.136,-1.554,-9.328,-0.005,0.009,-0.003
215410,-0.134,-1.575,-9.328,-0.005,0.01,-0.004
215513,-0.132,-1.568,-9.316,-0.006,0.009,-0.003
215616,-0.127,-1.566,-9.328,-0.005,0.01,-0.004
215719,-0.134,-1.563,-9.325,-0.006,0.009,-0.003
215822,-0.134,-1.556,-9.325,-0.005,0.01,-0.003
215925,-0.134,-1.568,-9.337,-0.005,0.009,-0.003
216028,-0.136,-1.561,-9.309,-0.005,0.01,-0.004
216131,-0.136,-1.556,-9.328,-0.005,0.01,-0.003
216234,-0.139,-1.556,-9.321,-0.005,0.01,-0.004
216337,-0.132,-1.556,-9.325,-0.005,0.01,-0.003
216440,-0.134,-1.556,-9.323,-0.005,0.01,-0.003
216543,-0.136,-1.568,-9.321,-0.005,0.01,-0.003
216646,-0.136,-1.568,-9.318,-0.005,0.01,-0.003
216749,-0.146,-1.568,-9.309,-0.005,0.009,-0.003
216852,-0.141,-1.563,-9.318,-0.005,0.009,-0.003
216955,-0.132,-1.556,-9.316,-0.005,0.01,-0.003
217058,-0.127,-1.568,-9.328,-0.005,0.01,-0.004
217161,-0.134,-1.561,-9.335,-0.005,0.01,-0.004
217264,-0.129,-1.561,-9.325,-0.005,0.009,-0.003
217367,-0.136,-1.559,-9.328,-0.005,0.01,-0.004
217470,-0.146,-1.561,-9.323,-0.005,0.01,-0.003
217573,-0.132,-1.566,-9.328,-0.005,0.009,-0.003
217676,-0.139,-1.568,-9.328,-0.006,0.01,-0.004
217779,-0.134,-1.561,-9.335,-0.005,0.01,-0.004
217882,-0.127,-1.561,-9.325,-0.005,0.01,-0.003
217985,-0.144,-1.568,-9.311,-0.005,0.009,-0.003
218088,-0.139,-1.561,-9.318,-0.006,0.01,-0.004
218191,-0.127,-1.554,-9.333,-0.005,0.01,-0.004
218294,-0.129,-1.571,-9.333,-0.005,0.01,-0.003
218397,-0.132,-1.566,-9.325,-0.005,0.009,-0.003
218500,-0.139,-1.563,-9.33,-0.005,0.009,-0.003
218603,-0.141,-1.561,-9.316,-0.005,0.009,-0.003
218706,-0.151,-1.566,-9.33,-0.005,0.01,-0.003
218809,-0.134,-1.561,-9.325,-0.005,0.009,-0.003
218912,-0.134,-1.566,-9.323,-0.005,0.01,-0.003
219015,-0.124,-1.566,-9.33,-0.006,0.01,-0.003
219118,-0.148,-1.556,-9.333,-0.005,0.01,-0.003
219221,-0.141,-1.551,-9.33,-0.005,0.009,-0.003
219324,-0.129,-1.559,-9.318,-0.006,0.009,-0.003
219427,-0.129,-1.559,-9.325,-0.005,0.01,-0.003
219530,-0.12,-1.573,-9.325,-0.005,0.01,-0.003
219633,-0.134,-1.566,-9.328,-0.005,0.01,-0.003
219736,-0.139,-1.561,-9.321,-0.006,0.01,-0.003
219839,-0.136,-1.568,-9.328,-0.006,0.01,-0.003
219942,-0.134,-1.561,-9.318,-0.006,0.01,-0.003
220045,-0.129,-1.566,-9.328,-0.005,0.009,-0.003
220148,-0.136,-1.559,-9.318,-0.006,0.01,-0.004
220251,-0.141,-1.566,-9.311,-0.005,0.009,-0.004
220354,-0.136,-1.563,-9.333,-0.005,0.009,-0.003
220457,-0.141,-1.559,-9.321,-0.005,0.009,-0.004
220560,-0.134,-1.561,-9.335,-0.005,0.009,-0.003
220663,-0.136,-1.554,-9.337,-0.006,0.009,-0.003
220766,-0.132,-1.556,-9.337,-0.005,0.009,-0.003
220869,-0.141,-1.556,-9.318,-0.006,0.01,-0.003
220972,-0.132,-1.563,-9.306,-0.006,0.01,-0.004
221075,-0.134,-1.568,-9.318,-0.006,0.009,-0.003
221178,-0.127,-1.566,-9.311,-0.005,0.01,-0.003
221281,-0.132,-1.561,-9.325,-0.006,0.01,-0.003
221384,-0.144,-1.559,-9.313,-0.005,0.01,-0.003
221487,-0.139,-1.568,-9.323,-0.005,0.01,-0.003
221590,-0.132,-1.571,-9.321,-0.005,0.009,-0.003
221693,-0.134,-1.556,-9.333,-0.006,0.009,-0.003
221796,-0.146,-1.563,-9.313,-0.005,0.01,-0.003
221899,-0.18,-2.222,-9.254,-0.398,0.038,-0.007
222002,-0.024,0.809,-9.234,-2.706,0.171,-0.017
222105,0.067,2.09,-9.27,-0.305,0.028,-0.003
222208,0.065,2.002,-9.261,-0.016,0.009,-0.004
222311,0.069,2.002,-9.242,-0.006,0.01,-0.002
222414,0.074,1.99,-9.261,-0.006,0.009,-0.003
222517,0.074,1.997,-9.251,-0.005,0.01,-0.003
222620,0.074,1.994,-9.254,-0.005,0.01,-0.003
222723,0.074,1.999,-9.249,-0.005,0.009,-0.003
222826,0.062,1.99,-9.266,-0.005,0.01,-0.003
222929,0.077,1.985,-9.273,-0.006,0.01,-0.003
223032,0.077,1.982,-9.258,-0.006,0.01,-0.003
223135,0.074,1.994,-9.246,-0.006,0.009,-0.003
223238,0.081,1.994,-9.263,-0.006,0.009,-0.003
223341,0.065,1.985,-9.254,-0.006,0.01,-0.003
223444,0.079,1.994,-9.256,-0.006,0.009,-0.003
223547,0.067,1.994,-9.246,-0.006,0.01,-0.003
223650,0.072,2.004,-9.244,-0.005,0.01,-0.003
223753,0.057,1.997,-9.232,-0.005,0.01,-0.003
223856,0.069,2.002,-9.266,-0.006,0.009,-0.003
223959,0.074,1.992,-9.244,-0.006,0.01,-0.003
224062,0.079,1.992,-9.254,-0.005,0.01,-0.003
224165,0.074,1.987,-9.266,-0.006,0.01,-0.003
224268,0.072,1.997,-9.258,-0.006,0.009,-0.003
224371,0.072,1.994,-9.239,-0.006,0.01,-0.003
224474,0.038,1.01,-9.306,2.917,-0.167,0.016
224577,-0.153,-1.671,-9.282,0.593,-0.028,0.004
224680,-0.127,-1.566,-9.304,0.022,0.006,-0.003
224783,-0.136,-1.559,-9.335,-0.003,0.009,-0.003
224886,-0.129,-1.544,-9.325,-0.005,0.009,-0.004
224989,-0.141,-1.539,-9.328,-0.005,0.009,-0.003
225092,-0.146,-1.556,-9.313,-0.005,0.01,-0.004
225195,-0.124,-1.566,-9.328,-0.005,0.009,-0.004
225298,-0.134,-1.568,-9.323,-0.005,0.01,-0.004
225401,-0.132,-1.561,-9.321,-0.005,0.009,-0.004
225504,-0.132,-1.566,-9.34,-0.006,0.01,-0.004
225607,-0.132,-1.563,-9.313,-0.005,0.01,-0.003
225710,-0.139,-1.563,-9.306,-0.005,0.009,-0.003
225813,-0.141,-1.566,-9.328,-0.005,0.009,-0.004
225916,-0.139,-1.556,-9.318,-0.005,0.01,-0.004
226019,-0.136,-1.542,-9.313,-0.005,0.01,-0.003
226122,-0.132,-1.551,-9.313,-0.005,0.01,-0.003
226225,-0.129,-1.559,-9.328,-0.005,0.01,-0.003
226328,-0.127,-1.559,-9.342,-0.005,0.009,-0.003
226431,-0.139,-1.566,-9.313,-0.005,0.01,-0.003
226534,-0.136,-1.568,-9.323,-0.005,0.009,-0.003
226637,-0.132,-1.573,-9.321,-0.005,0.01,-0.004
226740,-0.151,-1.561,-9.321,-0.005,0.009,-0.004
226843,-0.129,-1.571,-9.33,-0.005,0.01,-0.004
226946,-0.129,-1.559,-9.328,-0.005,0.01,-0.003
227049,-0.139,-1.559,-9.309,-0.005,0.009,-0.003
227152,-0.136,-1.571,-9.335,-0.005,0.01,-0.003
227255,-0.132,-1.563,-9.33,-0.006,0.01,-0.003
227358,-0.139,-1.551,-9.321,-0.006,0.009,-0.004
227461,-0.136,-1.559,-9.309,-0.005,0.01,-0.003
227564,-0.141,-1.559,-9.323,-0.006,0.009,-0.003
227667,-0.136,-1.568,-9.323,-0.005,0.009,-0.003
227770,-0.127,-1.575,-9.33,-0.005,0.009,-0.003
227873,-0.136,-1.563,-9.333,-0.005,0.01,-0.003
227976,-0.134,-1.551,-9.321,-0.005,0.01,-0.003
228079,-0.136,-1.559,-9.323,-0.005,0.009,-0.003
228182,-0.129,-1.556,-9.34,-0.005,0.009,-0.003
228285,-0.141,-1.559,-9.33,-0.005,0.009,-0.004
228388,-0.127,-1.559,-9.323,-0.005,0.009,-0.003
228491,-0.139,-1.554,-9.323,-0.005,0.009,-0.004
228594,-0.132,-1.556,-9.352,-0.006,0.01,-0.004
228697,-0.134,-1.559,-9.323,-0.006,0.01,-0.004
228800,-0.132,-1.561,-9.325,-0.006,0.009,-0.003
228903,-0.129,-1.556,-9.33,-0.006,0.009,-0.003
229006,-0.134,-1.563,-9.34,-0.005,0.01,-0.003
229109,-0.139,-1.556,-9.325,-0.006,0.01,-0.004
229212,-0.132,-1.556,-9.318,-0.006,0.01,-0.003
229315,-0.129,-1.556,-9.33,-0.005,0.009,-0.003
229418,-0.139,-1.554,-9.33,-0.005,0.01,-0.003
229521,-0.12,-1.563,-9.313,-0.006,0.01,-0.003
229624,-0.127,-1.559,-9.333,-0.005,0.01,-0.003
229727,-0.136,-1.568,-9.321,-0.005,0.009,-0.003
229830,-0.144,-1.551,-9.321,-0.005,0.009,-0.003
229933,-0.144,-1.566,-9.33,-0.006,0.01,-0.003
230036,-0.139,-1.568,-9.325,-0.006,0.01,-0.003
230139,-0.141,-1.563,-9.306,-0.005,0.009,-0.003
230242,-0.134,-1.554,-9.325,-0.006,0.009,-0.004
230345,-0.134,-1.556,-9.313,-0.006,0.01,-0.003
230448,-0.132,-1.554,-9.306,-0.005,0.01,-0.004
230551,-0.141,-1.554,-9.323,-0.006,0.009,-0.003
230654,-0.134,-1.561,-9.313,-0.005,0.009,-0.003
230757,-0.127,-1.554,-9.33,-0.005,0.009,-0.003
230860,-0.122,-1.559,-9.325,-0.006,0.01,-0.003
230963,-0.129,-1.568,-9.328,-0.005,0.01,-0.003
231066,-0.136,-1.566,-9.323,-0.005,0.01,-0.003
231169,-0.141,-1.556,-9.316,-0.005,0.009,-0.004
231272,-0.141,-1.554,-9.316,-0.006,0.009,-0.004
231375,-0.134,-1.551,-9.321,-0.006,0.009,-0.004
231478,-0.129,-1.554,-9.345,-0.005,0.009,-0.003
231581,-0.132,-1.563,-9.325,-0.005,0.01,-0.004
231684,-0.141,-1.568,-9.311,-0.006,0.009,-0.004
231787,-0.129,-1.563,-9.328,-0.005,0.009,-0.003
231890,-0.146,-1.563,-9.311,-0.006,0.009,-0.003
231993,-0.136,-1.561,-9.333,-0.006,0.01,-0.004
232096,-0.139,-1.559,-9.335,-0.005,0.01,-0.004
232199,-0.141,-1.551,-9.316,-0.005,0.01,-0.003
232302,-0.139,-1.554,-9.311,-0.006,0.01,-0.003
232405,-0.141,-1.556,-9.328,-0.006,0.01,-0.004
232508,-0.139,-1.561,-9.323,-0.005,0.01,-0.003
232611,-0.141,-1.559,-9.321,-0.006,0.009,-0.003
232714,-0.136,-1.556,-9.323,-0.006,0.01,-0.003
232817,-0.132,-1.566,-9.325,-0.005,0.01,-0.003
232920,-0.144,-1.561,-9.323,-0.005,0.01,-0.004
233023,-0.134,-1.563,-9.323,-0.006,0.009,-0.004
233126,-0.139,-1.561,-9.313,-0.005,0.01,-0.003
233229,-0.132,-1.566,-9.321,-0.005,0.009,-0.003
233332,-0.134,-1.559,-9.313,-0.005,0.01,-0.003
233435,-0.134,-1.554,-9.325,-0.006,0.01,-0.004
233538,-0.139,-1.566,-9.325,-0.006,0.009,-0.003
233641,-0.129,-1.571,-9.321,-0.006,0.009,-0.004
233744,-0.136,-1.566,-9.323,-0.005,0.01,-0.003
233847,-0.136,-1.561,-9.311,-0.005,0.009,-0.003
233950,-0.141,-1.544,-9.311,-0.006,0.01,-0.003
234053,-0.136,-1.561,-9.328,-0.005,0.01,-0.003
234156,-0.136,-1.551,-9.323,-0.006,0.009,-0.003
234259,-0.132,-1.559,-9.321,-0.006,0.009,-0.003
234362,-0.136,-1.554,-9.321,-0.005,0.009,-0.003
234465,-0.136,-1.559,-9.325,-0.005,0.009,-0.004
234568,-0.141,-1.563,-9.313,-0.006,0.01,-0.004
234671,-0.136,-1.568,-9.33,-0.005,0.009,-0.003
234774,-0.134,-1.561,-9.333,-0.006,0.009,-0.003
234877,-0.141,-1.554,-9.335,-0.006,0.01,-0.003
234980,-0.129,-1.561,-9.33,-0.005,0.009,-0.004
235083,-0.136,-1.563,-9.33,-0.006,0.009,-0.004
235186,-0.132,-1.568,-9.33,-0.006,0.009,-0.004
235289,-0.134,-1.561,-9.333,-0.005,0.01,-0.004
235392,-0.124,-1.561,-9.328,-0.005,0.009,-0.003
235495,-0.136,-1.556,-9.328,-0.005,0.009,-0.003
235598,-0.124,-1.573,-9.318,-0.006,0.009,-0.003
235701,-0.141,-1.563,-9.34,-0.006,0.009,-0.003
235804,-0.136,-1.568,-9.342,-0.005,0.01,-0.003
235907,-0.132,-1.561,-9.323,-0.006,0.009,-0.003
236010,-0.141,-1.561,-9.311,-0.005,0.01,-0.004
236113,-0.134,-1.561,-9.321,-0.006,0.009,-0.003
236216,-0.132,-1.559,-9.313,-0.005,0.01,-0.003
236319,-0.141,-1.563,-9.318,-0.005,0.009,-0.003
236422,-0.136,-1.566,-9.325,-0.005,0.01,-0.004
236525,-0.136,-1.561,-9.328,-0.005,0.01,-0.004
236628,-0.141,-1.568,-9.309,-0.005,0.009,-0.003
236731,-0.136,-1.568,-9.328,-0.006,0.01,-0.003
236834,-0.139,-1.559,-9.316,-0.006,0.009,-0.004
236937,-0.134,-1.559,-9.335,-0.006,0.009,-0.003
237040,-0.132,-1.551,-9.333,-0.005,0.01,-0.003
237143,-0.141,-1.563,-9.309,-0.006,0.01,-0.003
237246,-0.134,-1.563,-9.316,-0.005,0.01,-0.003
237349,-0.146,-1.566,-9.333,-0.005,0.01,-0.004
237452,-0.139,-1.559,-9.316,-0.006,0.01,-0.003
237555,-0.136,-1.563,-9.316,-0.005,0.01,-0.003
237658,-0.132,-1.559,-9.309,-0.006,0.01,-0.003
237761,-0.132,-1.554,-9.311,-0.005,0.009,-0.004
237864,-0.132,-1.559,-9.318,-0.006,0.009,-0.004
237967,-0.136,-1.568,-9.318,-0.005,0.01,-0.003
238070,-0.132,-1.563,-9.316,-0.005,0.01,-0.004
238173,-0.141,-1.563,-9.321,-0.006,0.01,-0.003
238276,-0.132,-1.573,-9.316,-0.005,0.009,-0.004
238379,-0.132,-1.559,-9.306,-0.005,0.009,-0.004
238482,-0.124,-1.559,-9.316,-0.005,0.01,-0.003
238585,-0.134,-1.566,-9.313,-0.006,0.009,-0.003
238688,-0.132,-1.563,-9.316,-0.005,0.01,-0.003
238791,-0.134,-1.559,-9.328,-0.006,0.01,-0.003
238894,-0.136,-1.566,-9.321,-0.005,0.01,-0.003
238997,-0.141,-1.554,-9.311,-0.006,0.01,-0.003
239100,-0.146,-1.566,-9.306,-0.006,0.01,-0.004
239203,-0.139,-1.561,-9.316,-0.005,0.009,-0.003
239306,-0.132,-1.561,-9.328,-0.005,0.009,-0.004
239409,-0.148,-1.566,-9.323,-0.006,0.009,-0.003
239512,-0.124,-1.563,-9.33,-0.005,0.009,-0.004
239615,-0.134,-1.563,-9.321,-0.006,0.009,-0.004
239718,-0.124,-1.566,-9.323,-0.006,0.009,-0.003
239821,-0.139,-1.559,-9.328,-0.005,0.009,-0.004
239924,-0.139,-1.561,-9.333,-0.006,0.01,-0.003
240027,-0.134,-1.573,-9.33,-0.005,0.01,-0.003
240130,-0.139,-1.566,-9.325,-0.005,0.009,-0.003
240233,-0.136,-1.556,-9.333,-0.005,0.009,-0.003
240336,-0.122,-1.551,-9.34,-0.005,0.009,-0.003
240439,-0.127,-1.556,-9.33,-0.005,0.009,-0.004
240542,-0.127,-1.554,-9.318,-0.006,0.009,-0.003
240645,-0.148,-1.554,-9.328,-0.005,0.01,-0.003
240748,-0.132,-1.571,-9.318,-0.005,0.01,-0.003
240851,-0.136,-1.559,-9.337,-0.005,0.009,-0.004
240954,-0.141,-1.566,-9.323,-0.005,0.009,-0.003
241057,-0.132,-1.551,-9.311,-0.006,0.009,-0.004
241160,-0.127,-1.563,-9.313,-0.005,0.009,-0.003
241263,-0.136,-1.563,-9.328,-0.005,0.009,-0.004
241366,-0.132,-1.544,-9.301,-0.005,0.01,-0.003
241469,-0.144,-1.551,-9.313,-0.005,0.01,-0.003
241572,-0.132,-1.563,-9.323,-0.005,0.01,-0.003
241675,-0.129,-1.566,-9.321,-0.005,0.01,-0.003
241778,-0.132,-1.549,-9.323,-0.005,0.01,-0.003
241881,-0.136,-1.566,-9.335,-0.005,0.01,-0.003
241984,-0.134,-1.556,-9.316,-0.005,0.009,-0.003
242087,-0.134,-1.561,-9.321,-0.005,0.01,-0.003
242190,-0.129,-1.556,-9.321,-0.005,0.009,-0.004
242293,-0.127,-1.556,-9.316,-0.005,0.01,-0.003
242396,-0.134,-1.554,-9.328,-0.005,0.01,-0.003
242499,-0.132,-1.571,-9.323,-0.006,0.01,-0.003
242602,-0.136,-1.561,-9.323,-0.006,0.009,-0.003
242705,-0.146,-1.575,-9.318,-0.005,0.009,-0.004
242808,-0.144,-1.559,-9.323,-0.005,0.009,-0.003
242911,-0.148,-1.559,-9.325,-0.005,0.009,-0.003
243014,-0.134,-1.551,-9.321,-0.005,0.01,-0.003
243117,-0.134,-1.556,-9.321,-0.006,0.01,-0.003
243220,-0.139,-1.573,-9.309,-0.006,0.01,-0.003
243323,-0.127,-1.556,-9.313,-0.005,0.009,-0.003
243426,-0.129,-1.559,-9.337,-0.005,0.01,-0.003
243529,-0.139,-1.566,-9.323,-0.005,0.01,-0.003
243632,-0.134,-1.561,-9.33,-0.006,0.009,-0.003
243735,-0.139,-1.566,-9.323,-0.005,0.009,-0.003
243838,-0.136,-1.556,-9.328,-0.006,0.009,-0.004
243941,-0.146,-1.554,-9.333,-0.005,0.01,-0.003
244044,-0.134,-1.566,-9.323,-0.005,0.009,-0.003
244147,-0.134,-1.566,-9.325,-0.006,0.01,-0.003
244250,-0.127,-1.559,-9.313,-0.005,0.01,-0.003
244353,-0.139,-1.559,-9.33,-0.006,0.009,-0.004
244456,-0.132,-1.568,-9.325,-0.005,0.01,-0.003
244559,-0.136,-1.561,-9.325,-0.006,0.009,-0.004
244662,-0.139,-1.554,-9.311,-0.005,0.009,-0.003
244765,-0.127,-1.554,-9.311,-0.005,0.009,-0.003
244868,-0.129,-1.554,-9.323,-0.005,0.01,-0.003
244971,-0.136,-1.549,-9.335,-0.005,0.009,-0.003
245074,-0.136,-1.561,-9.33,-0.005,0.009,-0.003
245177,-0.139,-1.563,-9.321,-0.005,0.01,-0.004
245280,-0.134,-1.568,-9.325,-0.005,0.01,-0.003
245383,-0.12,-1.566,-9.33,-0.005,0.009,-0.003
245486,-0.136,-1.563,-9.33,-0.005,0.01,-0.003
245589,-0.129,-1.559,-9.316,-0.005,0.01,-0.003
245692,-0.134,-1.566,-9.304,-0.005,0.01,-0.004
245795,-0.127,-1.566,-9.304,-0.006,0.009,-0.003
245898,-0.132,-1.559,-9.318,-0.005,0.009,-0.004
246001,-0.136,-1.563,-9.325,-0.005,0.009,-0.003
246104,-0.132,-1.554,-9.316,-0.005,0.01,-0.004
246207,-0.132,-1.554,-9.321,-0.006,0.009,-0.003
246310,-0.127,-1.559,-9.328,-0.005,0.01,-0.003
246413,-0.139,-1.556,-9.321,-0.005,0.009,-0.003
246516,-0.151,-1.575,-9.304,-0.005,0.009,-0.004
246619,-0.156,-1.573,-9.304,-0.005,0.009,-0.004
246722,-0.129,-1.549,-9.335,-0.005,0.01,-0.003
246825,-0.115,-1.563,-9.347,-0.005,0.01,-0.003
246928,-0.12,-1.568,-9.342,-0.005,0.01,-0.003
247031,-0.146,-1.563,-9.321,-0.005,0.01,-0.003
247134,-0.141,-1.537,-9.306,-0.005,0.01,-0.003
247237,-0.139,-1.563,-9.313,-0.005,0.009,-0.004
247340,-0.136,-1.571,-9.301,-0.006,0.01,-0.004
247443,-0.129,-1.568,-9.325,-0.005,0.009,-0.003
247546,-0.132,-1.561,-9.323,-0.006,0.009,-0.003
247649,-0.148,-1.561,-9.33,-0.005,0.009,-0.003
247752,-0.141,-1.561,-9.335,-0.005,0.009,-0.003
247855,-0.124,-1.559,-9.313,-0.005,0.009,-0.003
247958,-0.132,-1.551,-9.316,-0.006,0.009,-0.003
248061,-0.12,-1.551,-9.313,-0.005,0.009,-0.003
248164,-0.132,-1.547,-9.313,-0.005,0.01,-0.003
248267,-0.129,-1.561,-9.316,-0.005,0.009,-0.004
248370,-0.144,-1.566,-9.313,-0.005,0.01,-0.003
248473,-0.144,-1.561,-9.321,-0.005,0.009,-0.004
248576,-0.132,-1.566,-9.335,-0.005,0.01,-0.004
248679,-0.129,-1.559,-9.321,-0.005,0.009,-0.003
248782,-0.136,-1.547,-9.321,-0.005,0.009,-0.003
248885,-0.134,-1.551,-9.316,-0.006,0.01,-0.004
248988,-0.136,-1.554,-9.323,-0.005,0.01,-0.003
249091,-0.136,-1.559,-9.323,-0.005,0.009,-0.003
249194,-0.129,-1.554,-9.323,-0.005,0.01,-0.003
249297,-0.129,-1.559,-9.321,-0.005,0.009,-0.003
249400,-0.141,-1.556,-9.318,-0.005,0.009,-0.003
249503,-0.127,-1.559,-9.323,-0.006,0.009,-0.003
249606,-0.141,-1.563,-9.321,-0.005,0.009,-0.003
249709,-0.139,-1.563,-9.33,-0.005,0.009,-0.003
249812,-0.129,-1.566,-9.325,-0.005,0.01,-0.003
249915,-0.139,-1.571,-9.323,-0.005,0.01,-0.003
250018,-0.139,-1.561,-9.313,-0.006,0.009,-0.004
250121,-0.132,-1.563,-9.313,-0.005,0.01,-0.003
250224,-0.132,-1.561,-9.309,-0.005,0.01,-0.004
250327,-0.132,-1.561,-9.311,-0.005,0.009,-0.003
250430,-0.136,-1.566,-9.328,-0.005,0.01,-0.003
250533,-0.139,-1.554,-9.333,-0.005,0.009,-0.004
250636,-0.134,-1.554,-9.318,-0.005,0.01,-0.004
250739,-0.132,-1.556,-9.323,-0.005,0.009,-0.004
250842,-0.132,-1.551,-9.325,-0.005,0.01,-0.004
250945,-0.134,-1.563,-9.311,-0.005,0.01,-0.004
251048,-0.139,-1.578,-9.321,-0.005,0.009,-0.003
251151,-0.141,-1.561,-9.321,-0.005,0.009,-0.003
251254,-0.146,-1.561,-9.313,-0.005,0.009,-0.003
251357,-0.132,-1.551,-9.316,-0.005,0.009,-0.003
251460,-0.141,-1.551,-9.318,-0.005,0.009,-0.003
251563,-0.129,-1.561,-9.306,-0.006,0.009,-0.003
251666,-0.129,-1.561,-9.316,-0.005,0.01,-0.003
251769,-0.141,-1.561,-9.306,-0.005,0.01,-0.003
251872,-0.132,-1.556,-9.313,-0.005,0.01,-0.003
251975,-0.136,-1.566,-9.337,-0.006,0.009,-0.003
252078,-0.122,-1.568,-9.333,-0.006,0.009,-0.004
252181,-0.127,-1.559,-9.316,-0.005,0.009,-0.004
252284,-0.132,-1.551,-9.318,-0.005,0.009,-0.003
252387,-0.122,-1.563,-9.306,-0.005,0.009,-0.004
252490,-0.146,-1.559,-9.325,-0.005,0.01,-0.003
252593,-0.141,-1.559,-9.316,-0.006,0.009,-0.003
252696,-0.129,-1.561,-9.325,-0.006,0.009,-0.004
252799,-0.136,-1.568,-9.316,-0.005,0.009,-0.003
252902,-0.136,-1.561,-9.323,-0.006,0.01,-0.004
253005,-0.129,-1.561,-9.311,-0.005,0.009,-0.003
253108,-0.134,-1.561,-9.325,-0.006,0.01,-0.004
253211,-0.136,-1.556,-9.318,-0.005,0.01,-0.003
253314,-0.132,-1.554,-9.318,-0.006,0.01,-0.003
253417,-0.132,-1.554,-9.333,-0.005,0.009,-0.003
253520,-0.132,-1.547,-9.328,-0.005,0.01,-0.004
253623,-0.134,-1.559,-9.304,-0.005,0.009,-0.003
253726,-0.132,-1.556,-9.318,-0.005,0.009,-0.003
253829,-0.141,-1.559,-9.325,-0.005,0.009,-0.003
253932,-0.134,-1.566,-9.323,-0.005,0.009,-0.004
254035,-0.132,-1.561,-9.316,-0.005,0.01,-0.004
254138,-0.129,-1.554,-9.323,-0.005,0.009,-0.003
254241,-0.139,-1.556,-9.321,-0.006,0.009,-0.003
254344,-0.134,-1.554,-9.33,-0.006,0.009,-0.003
254447,-0.134,-1.561,-9.321,-0.006,0.009,-0.003
254550,-0.139,-1.561,-9.306,-0.005,0.009,-0.003
254653,-0.151,-1.566,-9.328,-0.005,0.009,-0.004
254756,-0.129,-1.559,-9.321,-0.005,0.009,-0.003
254859,-0.148,-1.566,-9.321,-0.006,0.01,-0.004
254962,-0.129,-1.556,-9.321,-0.006,0.01,-0.004
255065,-0.129,-1.566,-9.337,-0.005,0.01,-0.004
255168,-0.136,-1.559,-9.328,-0.005,0.01,-0.004
255271,-0.134,-1.561,-9.313,-0.005,0.009,-0.003
255374,-0.141,-1.556,-9.318,-0.005,0.01,-0.003
255477,-0.127,-1.563,-9.323,-0.005,0.01,-0.004
255580,-0.129,-1.556,-9.311,-0.006,0.01,-0.003
255683,-0.134,-1.554,-9.342,-0.006,0.01,-0.003
255786,-0.132,-1.559,-9.311,-0.005,0.01,-0.004
255889,-0.132,-1.554,-9.325,-0.005,0.009,-0.003
255992,-0.134,-1.571,-9.347,-0.005,0.01,-0.003
256095,-0.136,-1.563,-9.316,-0.005,0.01,-0.004
256198,-0.139,-1.554,-9.323,-0.005,0.009,-0.004
256301,-0.136,-1.547,-9.325,-0.005,0.01,-0.004
256404,-0.134,-1.559,-9.323,-0.005,0.01,-0.003
256507,-0.127,-1.554,-9.304,-0.005,0.01,-0.004
256610,-0.141,-1.549,-9.313,-0.005,0.009,-0.004
256713,-0.134,-1.554,-9.33,-0.005,0.01,-0.004
256816,-0.144,-1.554,-9.301,-0.005,0.01,-0.004
256919,-0.127,-1.559,-9.316,-0.005,0.01,-0.003
257022,-0.139,-1.554,-9.313,-0.005,0.01,-0.003
257125,-0.136,-1.554,-9.333,-0.005,0.009,-0.003
257228,-0.132,-1.561,-9.33,-0.005,0.01,-0.004
257331,-0.132,-1.551,-9.311,-0.005,0.009,-0.004
257434,-0.132,-1.556,-9.321,-0.006,0.01,-0.003
257537,-0.139,-1.559,-9.316,-0.005,0.009,-0.003
257640,-0.136,-1.563,-9.335,-0.005,0.01,-0.004
257743,-0.139,-1.571,-9.342,-0.005,0.009,-0.003
257846,-0.124,-1.571,-9.337,-0.005,0.01,-0.004
257949,-0.146,-1.573,-9.337,-0.006,0.009,-0.004
258052,-0.129,-1.561,-9.321,-0.005,0.01,-0.003
258155,-0.136,-1.554,-9.323,-0.006,0.009,-0.003
258258,-0.134,-1.561,-9.313,-0.006,0.01,-0.003
258361,-0.129,-1.563,-9.313,-0.005,0.009,-0.003
258464,-0.141,-1.561,-9.313,-0.006,0.01,-0.003
258567,-0.136,-1.556,-9.323,-0.005,0.01,-0.003
258670,-0.129,-1.563,-9.316,-0.006,0.009,-0.004
258773,-0.144,-1.561,-9.325,-0.005,0.009,-0.003
258876,-0.136,-1.559,-9.309,-0.005,0.01,-0.004
258979,-0.141,-1.561,-9.333,-0.006,0.01,-0.003
259082,-0.136,-1.566,-9.318,-0.005,0.009,-0.004
259185,-0.132,-1.563,-9.33,-0.005,0.009,-0.003
259288,-0.139,-1.556,-9.311,-0.005,0.009,-0.004
259391,-0.139,-1.561,-9.321,-0.005,0.01,-0.003
259494,-0.141,-1.556,-9.321,-0.005,0.01,-0.003
259597,-0.146,-1.554,-9.321,-0.005,0.009,-0.003
259700,-0.136,-1.561,-9.316,-0.005,0.01,-0.004
259803,-0.136,-1.563,-9.323,-0.005,0.01,-0.003
259906,-0.151,-1.571,-9.325,-0.005,0.009,-0.004
260009,-0.127,-1.556,-9.316,-0.005,0.009,-0.004
260112,-0.134,-1.554,-9.306,-0.005,0.01,-0.003
260215,-0.136,-1.556,-9.321,-0.005,0.01,-0.003
260318,-0.136,-1.551,-9.325,-0.005,0.01,-0.003
260421,-0.134,-1.556,-9.311,-0.005,0.009,-0.003
260524,-0.132,-1.551,-9.333,-0.005,0.01,-0.003
260627,-0.127,-1.561,-9.335,-0.005,0.009,-0.004
260730,-0.136,-1.568,-9.313,-0.006,0.01,-0.003
260833,-0.139,-1.563,-9.323,-0.005,0.009,-0.003
260936,-0.139,-1.559,-9.333,-0.005,0.009,-0.003
261039,-0.134,-1.542,-9.328,-0.006,0.01,-0.003
261142,-0.136,-1.556,-9.316,-0.005,0.009,-0.004
261245,-0.139,-1.561,-9.33,-0.005,0.01,-0.004
261348,-0.132,-1.549,-9.309,-0.005,0.01,-0.003
261451,-0.136,-1.566,-9.318,-0.005,0.01,-0.004
261554,-0.132,-1.556,-9.306,-0.005,0.01,-0.004
261657,-0.129,-1.571,-9.318,-0.005,0.01,-0.003
261760,-0.141,-1.563,-9.313,-0.005,0.009,-0.004
261863,-0.144,-1.554,-9.323,-0.005,0.01,-0.003
261966,-0.129,-1.551,-9.316,-0.005,0.01,-0.004
262069,-0.132,-1.549,-9.328,-0.005,0.009,-0.003
262172,-0.132,-1.559,-9.321,-0.005,0.009,-0.004
262275,-0.141,-1.566,-9.318,-0.005,0.009,-0.003
262378,-0.134,-1.568,-9.311,-0.006,0.01,-0.004
262481,-0.132,-1.566,-9.311,-0.006,0.01,-0.004
262584,-0.132,-1.556,-9.318,-0.005,0.01,-0.003
262687,-0.132,-1.563,-9.318,-0.005,0.01,-0.004
262790,-0.134,-1.559,-9.321,-0.005,0.01,-0.004
262893,-0.148,-1.561,-9.316,-0.006,0.009,-0.004
262996,-0.146,-1.551,-9.311,-0.005,0.009,-0.003
263099,-0.136,-1.551,-9.323,-0.005,0.009,-0.004
263202,-0.132,-1.563,-9.325,-0.006,0.01,-0.003
263305,-0.139,-1.556,-9.342,-0.005,0.01,-0.004
263408,-0.144,-1.568,-9.323,-0.005,0.01,-0.004
263511,-0.139,-1.561,-9.323,-0.005,0.01,-0.003
263614,-0.144,-1.566,-9.328,-0.005,0.009,-0.003
263717,-0.132,-1.561,-9.316,-0.005,0.01,-0.003
263820,-0.122,-1.549,-9.321,-0.005,0.01,-0.003
