time (ms),acceleration x,acceleration y,acceleration z,gyro x,gyro y,gyro z
656,-9.787,-0.187,1.951,-0.006,0.013,-0.021
759,-9.797,-0.199,1.956,-0.007,0.013,-0.021
862,-9.785,-0.194,1.949,-0.006,0.013,-0.021
965,-9.797,-0.194,1.956,-0.006,0.013,-0.022
1068,-9.809,-0.194,1.954,-0.006,0.013,-0.022
1171,-9.797,-0.189,1.954,-0.006,0.014,-0.021
1274,-9.804,-0.189,1.949,-0.007,0.013,-0.021
1377,-9.804,-0.194,1.958,-0.006,0.013,-0.021
1480,-9.787,-0.192,1.944,-0.006,0.013,-0.022
1583,-9.814,-0.206,1.956,-0.007,0.013,-0.021
1686,-9.799,-0.196,1.951,-0.007,0.013,-0.021
1789,-9.804,-0.189,1.949,-0.006,0.013,-0.022
1892,-9.797,-0.194,1.966,-0.007,0.013,-0.021
1995,-9.792,-0.187,1.949,-0.006,0.013,-0.021
2098,-9.804,-0.199,1.951,-0.006,0.013,-0.021
2201,-9.802,-0.199,1.956,-0.007,0.013,-0.021
2304,-9.792,-0.189,1.954,-0.006,0.013,-0.021
2407,-9.802,-0.194,1.961,-0.007,0.013,-0.021
2510,-9.795,-0.201,1.958,-0.006,0.013,-0.021
2613,-9.797,-0.189,1.961,-0.007,0.013,-0.021
2716,-9.799,-0.201,1.944,-0.007,0.013,-0.021
2819,-9.792,-0.182,1.951,-0.006,0.013,-0.021
2922,-9.809,-0.194,1.942,-0.006,0.013,-0.021
3025,-9.809,-0.189,1.949,-0.007,0.013,-0.021
3128,-9.79,-0.192,1.961,-0.006,0.012,-0.021
3231,-9.792,-0.199,1.973,-0.006,0.012,-0.021
3334,-9.807,-0.194,1.956,-0.007,0.013,-0.021
3437,-9.795,-0.194,1.973,-0.006,0.013,-0.021
3540,-9.807,-0.206,1.961,-0.006,0.013,-0.022
3643,-9.792,-0.201,1.949,-0.006,0.013,-0.021
3746,-9.792,-0.189,1.963,-0.006,0.013,-0.021
3849,-9.797,-0.196,1.951,-0.007,0.013,-0.021
3952,-9.799,-0.192,1.951,-0.006,0.013,-0.021
4055,-9.797,-0.199,1.956,-0.007,0.013,-0.021
4158,-9.802,-0.204,1.949,-0.007,0.012,-0.021
4261,-9.785,-0.189,1.958,-0.007,0.013,-0.021
4364,-9.797,-0.196,1.956,-0.006,0.013,-0.021
4467,-9.799,-0.194,1.944,-0.007,0.012,-0.021
4570,-9.79,-0.201,1.951,-0.006,0.012,-0.021
4673,-9.802,-0.194,1.958,-0.007,0.013,-0.021
4776,-9.787,-0.206,1.946,-0.006,0.013,-0.021
4879,-9.795,-0.196,1.966,-0.007,0.013,-0.021
4982,-9.811,-0.213,1.949,-0.006,0.012,-0.021
5085,-9.807,-0.182,1.966,-0.007,0.013,-0.021
5188,-9.797,-0.194,1.956,-0.006,0.013,-0.021
5291,-9.787,-0.206,1.951,-0.007,0.012,-0.022
5394,-9.795,-0.196,1.956,-0.007,0.013,-0.021
5497,-9.797,-0.199,1.956,-0.006,0.013,-0.021
5600,-9.795,-0.201,1.963,-0.007,0.013,-0.021
5703,-9.792,-0.192,1.944,-0.007,0.013,-0.021
5806,-9.807,-0.194,1.961,-0.007,0.013,-0.022
5909,-9.795,-0.196,1.946,-0.007,0.012,-0.022
6012,-9.79,-0.196,1.966,-0.006,0.012,-0.021
6115,-9.797,-0.192,1.951,-0.006,0.012,-0.022
6218,-9.795,-0.187,1.949,-0.006,0.012,-0.021
6321,-9.799,-0.199,1.939,-0.007,0.013,-0.022
6424,-9.797,-0.192,1.963,-0.006,0.012,-0.021
6527,-9.79,-0.192,1.944,-0.006,0.013,-0.021
6630,-9.797,-0.199,1.942,-0.007,0.012,-0.021
6733,-9.797,-0.187,1.963,-0.006,0.013,-0.021
6836,-9.802,-0.196,1.939,-0.007,0.012,-0.021
6939,-9.804,-0.189,1.946,-0.006,0.013,-0.021
7042,-9.797,-0.192,1.946,-0.006,0.013,-0.021
7145,-9.785,-0.187,1.946,-0.007,0.013,-0.021
7248,-9.797,-0.187,1.958,-0.006,0.012,-0.021
7351,-9.795,-0.192,1.951,-0.007,0.013,-0.022
7454,-9.797,-0.194,1.961,-0.007,0.013,-0.021
7557,-9.797,-0.189,1.97,-0.006,0.013,-0.021
7660,-9.795,-0.187,1.961,-0.007,0.012,-0.021
7763,-9.799,-0.196,1.956,-0.007,0.012,-0.021
7866,-9.799,-0.189,1.961,-0.007,0.013,-0.021
7969,-9.799,-0.192,1.951,-0.006,0.012,-0.021
8072,-9.795,-0.201,1.951,-0.007,0.012,-0.021
8175,-9.797,-0.189,1.961,-0.006,0.012,-0.021
8278,-9.799,-0.192,1.949,-0.007,0.012,-0.022
8381,-9.802,-0.201,1.956,-0.007,0.013,-0.021
8484,-9.799,-0.192,1.954,-0.006,0.013,-0.022
8587,-9.797,-0.199,1.951,-0.007,0.013,-0.021
8690,-9.785,-0.204,1.954,-0.007,0.013,-0.021
8793,-9.795,-0.201,1.958,-0.006,0.013,-0.021
8896,-9.799,-0.199,1.958,-0.006,0.013,-0.021
8999,-9.799,-0.196,1.961,-0.006,0.013,-0.021
9102,-9.799,-0.201,1.951,-0.007,0.013,-0.021
9205,-9.797,-0.204,1.956,-0.007,0.013,-0.021
9308,-9.792,-0.196,1.954,-0.006,0.013,-0.021
9411,-9.802,-0.196,1.944,-0.006,0.013,-0.021
9514,-9.799,-0.196,1.944,-0.007,0.013,-0.021
9617,-9.809,-0.194,1.968,-0.006,0.013,-0.021
9720,-9.804,-0.192,1.951,-0.006,0.012,-0.021
9823,-9.797,-0.194,1.949,-0.007,0.013,-0.022
9926,-9.795,-0.201,1.942,-0.007,0.013,-0.021
10029,-9.809,-0.192,1.937,-0.007,0.012,-0.021
10132,-9.807,-0.194,1.956,-0.006,0.013,-0.021
10235,-9.807,-0.189,1.954,-0.007,0.012,-0.021
10338,-9.802,-0.201,1.961,-0.007,0.013,-0.021
10441,-9.79,-0.192,1.958,-0.006,0.013,-0.021
10544,-9.807,-0.194,1.961,-0.007,0.013,-0.021
10647,-9.804,-0.192,1.954,-0.007,0.013,-0.021
10750,-9.795,-0.199,1.956,-0.007,0.013,-0.021
10853,-9.811,-0.196,1.968,-0.006,0.012,-0.022
10956,-9.809,-0.194,1.961,-0.006,0.013,-0.021
11059,-9.804,-0.192,1.954,-0.007,0.013,-0.022
11162,-9.807,-0.194,1.963,-0.006,0.012,-0.021
11265,-9.804,-0.194,1.951,-0.006,0.013,-0.021
11368,-9.809,-0.201,1.949,-0.006,0.013,-0.022
11471,-9.799,-0.196,1.966,-0.007,0.013,-0.021
11574,-9.797,-0.196,1.963,-0.007,0.013,-0.021
11677,-9.792,-0.192,1.97,-0.007,0.013,-0.021
11780,-9.79,-0.187,1.961,-0.006,0.013,-0.021
11883,-9.792,-0.187,1.966,-0.007,0.012,-0.021
11986,-9.792,-0.208,1.958,-0.007,0.012,-0.021
12089,-9.792,-0.201,1.968,-0.007,0.013,-0.021
12192,-9.807,-0.206,1.949,-0.006,0.012,-0.022
12295,-9.804,-0.201,1.958,-0.006,0.012,-0.021
12398,-9.79,-0.196,1.973,-0.007,0.013,-0.021
12501,-9.797,-0.211,1.978,-0.006,0.013,-0.021
12604,-9.804,-0.199,1.935,-0.007,0.013,-0.021
12707,-9.804,-0.199,1.956,-0.006,0.013,-0.021
12810,-9.795,-0.172,1.946,-0.007,0.013,-0.021
12913,-9.797,-0.204,1.946,-0.006,0.013,-0.021
13016,-9.795,-0.16,1.932,-0.007,0.013,-0.021
13119,-9.804,-0.199,1.942,-0.007,0.013,-0.021
13222,-9.79,-0.177,1.937,-0.006,0.012,-0.021
13325,-9.809,-0.184,1.954,-0.007,0.012,-0.021
13428,-9.797,-0.194,1.942,-0.006,0.012,-0.021
13531,-9.797,-0.189,1.956,-0.007,0.013,-0.022
13634,-9.807,-0.189,1.966,-0.006,0.012,-0.021
13737,-9.799,-0.187,1.949,-0.006,0.013,-0.021
13840,-9.797,-0.201,1.958,-0.006,0.012,-0.022
13943,-9.797,-0.184,1.966,-0.007,0.012,-0.021
14046,-9.799,-0.206,1.944,-0.006,0.013,-0.021
14149,-9.79,-0.192,1.949,-0.007,0.013,-0.022
14252,-9.807,-0.206,1.973,-0.007,0.013,-0.021
14355,-9.807,-0.194,1.954,-0.007,0.013,-0.021
14458,-9.811,-0.196,1.958,-0.006,0.013,-0.02
14561,-9.79,-0.204,1.966,-0.006,0.013,-0.02
14664,-9.802,-0.192,1.946,-0.007,0.013,-0.021
14767,-9.804,-0.206,1.956,-0.006,0.013,-0.022
14870,-9.807,-0.192,1.963,-0.007,0.013,-0.021
14973,-9.799,-0.196,1.954,-0.007,0.012,-0.021
15076,-9.799,-0.189,1.939,-0.007,0.013,-0.021
15179,-9.811,-0.192,1.961,-0.006,0.013,-0.021
15282,-9.802,-0.194,1.942,-0.006,0.012,-0.021
15385,-9.795,-0.189,1.951,-0.007,0.013,-0.021
15488,-9.799,-0.194,1.937,-0.006,0.013,-0.021
15591,-9.797,-0.189,1.951,-0.007,0.013,-0.02
15694,-9.804,-0.189,1.958,-0.006,0.013,-0.021
15797,-9.797,-0.192,1.944,-0.007,0.013,-0.021
15900,-9.799,-0.194,1.961,-0.007,0.013,-0.021
16003,-9.797,-0.184,1.963,-0.007,0.012,-0.021
16106,-9.795,-0.199,1.956,-0.007,0.013,-0.021
16209,-9.804,-0.204,1.954,-0.007,0.013,-0.021
16312,-9.809,-0.187,1.958,-0.006,0.013,-0.021
16415,-9.804,-0.201,1.935,-0.007,0.012,-0.021
16518,-9.783,-0.18,1.951,-0.006,0.013,-0.021
16621,-9.804,-0.187,1.956,-0.007,0.013,-0.021
16724,-9.804,-0.204,1.956,-0.007,0.012,-0.021
16827,-9.787,-0.18,1.951,-0.007,0.013,-0.021
16930,-9.799,-0.184,1.939,-0.006,0.013,-0.021
17033,-9.792,-0.189,1.951,-0.006,0.012,-0.021
17136,-9.783,-0.184,1.963,-0.007,0.013,-0.021
17239,-9.795,-0.194,1.944,-0.006,0.013,-0.022
17342,-9.792,-0.187,1.956,-0.006,0.012,-0.021
17445,-9.804,-0.182,1.958,-0.006,0.013,-0.021
17548,-9.802,-0.206,1.958,-0.006,0.012,-0.022
17651,-9.799,-0.192,1.966,-0.006,0.012,-0.021
17754,-9.797,-0.189,1.956,-0.007,0.012,-0.021
17857,-9.799,-0.208,1.946,-0.007,0.012,-0.021
17960,-9.799,-0.189,1.956,-0.006,0.013,-0.021
18063,-9.795,-0.199,1.946,-0.007,0.012,-0.021
18166,-9.79,-0.199,1.961,-0.006,0.013,-0.022
18269,-9.797,-0.201,1.968,-0.006,0.013,-0.021
18372,-9.802,-0.192,1.949,-0.007,0.013,-0.021
18475,-9.792,-0.189,1.954,-0.007,0.013,-0.021
18578,-9.797,-0.184,1.954,-0.007,0.013,-0.021
18681,-9.802,-0.194,1.961,-0.007,0.012,-0.022
18784,-9.792,-0.184,1.954,-0.007,0.013,-0.021
18887,-9.787,-0.192,1.958,-0.006,0.013,-0.021
18990,-9.797,-0.199,1.946,-0.007,0.012,-0.021
19093,-9.787,-0.199,1.956,-0.007,0.013,-0.021
19196,-9.792,-0.196,1.937,-0.006,0.012,-0.021
19299,-9.795,-0.194,1.954,-0.007,0.012,-0.021
19402,-9.802,-0.184,1.949,-0.007,0.013,-0.021
19505,-9.804,-0.189,1.946,-0.007,0.013,-0.021
19608,-9.792,-0.192,1.958,-0.006,0.012,-0.021
19711,-9.797,-0.182,1.951,-0.006,0.013,-0.021
19814,-9.807,-0.192,1.937,-0.007,0.012,-0.021
19917,-9.79,-0.182,1.951,-0.007,0.012,-0.021
20020,-9.799,-0.196,1.954,-0.006,0.013,-0.021
20123,-9.799,-0.187,1.958,-0.006,0.012,-0.021
20226,-9.797,-0.199,1.951,-0.007,0.013,-0.021
20329,-9.809,-0.199,1.954,-0.006,0.012,-0.021
20432,-9.792,-0.199,1.951,-0.007,0.013,-0.021
20535,-9.807,-0.199,1.963,-0.007,0.013,-0.021
20638,-9.804,-0.194,1.961,-0.007,0.013,-0.021
20741,-9.792,-0.192,1.973,-0.007,0.013,-0.021
20844,-9.79,-0.196,1.956,-0.006,0.013,-0.021
20947,-9.797,-0.194,1.949,-0.006,0.012,-0.021
21050,-9.79,-0.187,1.961,-0.006,0.012,-0.021
21153,-9.802,-0.192,1.944,-0.007,0.012,-0.021
21256,-9.811,-0.192,1.944,-0.006,0.012,-0.021
21359,-9.797,-0.177,1.956,-0.007,0.013,-0.021
21462,-9.802,-0.196,1.954,-0.007,0.012,-0.021
21565,-9.79,-0.194,1.956,-0.006,0.013,-0.021
21668,-9.797,-0.204,1.961,-0.006,0.013,-0.021
21771,-9.802,-0.201,1.942,-0.007,0.012,-0.021
21874,-9.802,-0.201,1.951,-0.006,0.012,-0.021
21977,-9.792,-0.192,1.954,-0.007,0.013,-0.021
22080,-9.797,-0.206,1.944,-0.006,0.012,-0.021
22183,-9.79,-0.189,1.951,-0.007,0.013,-0.021
22286,-9.804,-0.192,1.966,-0.007,0.012,-0.021
22389,-9.799,-0.192,1.963,-0.007,0.013,-0.021
22492,-9.795,-0.189,1.946,-0.006,0.013,-0.021
22595,-9.792,-0.196,1.958,-0.006,0.013,-0.021
22698,-9.802,-0.199,1.956,-0.007,0.013,-0.021
22801,-9.797,-0.189,1.949,-0.006,0.013,-0.021
22904,-9.802,-0.196,1.956,-0.007,0.012,-0.022
23007,-9.797,-0.201,1.949,-0.007,0.013,-0.021
23110,-9.799,-0.189,1.956,-0.006,0.012,-0.022
23213,-9.799,-0.187,1.946,-0.007,0.012,-0.021
23316,-9.799,-0.194,1.951,-0.007,0.013,-0.021
23419,-9.802,-0.189,1.946,-0.007,0.013,-0.021
23522,-9.799,-0.192,1.954,-0.007,0.013,-0.021
23625,-9.792,-0.192,1.961,-0.006,0.013,-0.021
23728,-9.795,-0.201,1.956,-0.007,0.012,-0.021
23831,-9.799,-0.199,1.951,-0.006,0.013,-0.021
23934,-9.787,-0.182,1.949,-0.006,0.013,-0.021
24037,-9.799,-0.194,1.968,-0.007,0.013,-0.021
24140,-9.802,-0.196,1.961,-0.007,0.013,-0.021
24243,-9.804,-0.189,1.958,-0.006,0.012,-0.021
24346,-9.795,-0.196,1.963,-0.006,0.012,-0.021
24449,-9.799,-0.192,1.954,-0.007,0.013,-0.021
24552,-9.804,-0.199,1.956,-0.007,0.013,-0.021
24655,-9.802,-0.199,1.949,-0.006,0.013,-0.02
24758,-9.802,-0.194,1.946,-0.006,0.013,-0.021
24861,-9.797,-0.184,1.982,-0.007,0.013,-0.021
24964,-9.804,-0.208,1.949,-0.006,0.013,-0.021
25067,-9.797,-0.189,1.951,-0.007,0.013,-0.021
25170,-9.807,-0.187,1.966,-0.007,0.013,-0.021
25273,-9.814,-0.192,1.937,-0.006,0.013,-0.021
25376,-9.797,-0.194,1.961,-0.006,0.013,-0.021
25479,-9.795,-0.194,1.954,-0.007,0.013,-0.021
25582,-9.792,-0.204,1.946,-0.007,0.013,-0.021
25685,-9.79,-0.196,1.966,-0.007,0.013,-0.022
25788,-9.795,-0.194,1.956,-0.007,0.013,-0.021
25891,-9.795,-0.196,1.944,-0.007,0.013,-0.021
25994,-9.809,-0.187,1.949,-0.007,0.012,-0.021
26097,-9.807,-0.189,1.939,-0.007,0.013,-0.021
26200,-9.797,-0.192,1.949,-0.006,0.013,-0.021
26303,-9.802,-0.182,1.966,-0.007,0.013,-0.021
26406,-9.795,-0.192,1.951,-0.007,0.012,-0.021
26509,-9.802,-0.199,1.949,-0.006,0.013,-0.021
26612,-9.799,-0.189,1.951,-0.006,0.013,-0.021
26715,-9.799,-0.196,1.939,-0.006,0.013,-0.021
26818,-9.797,-0.189,1.958,-0.007,0.012,-0.021
26921,-9.802,-0.192,1.946,-0.007,0.013,-0.021
27024,-9.795,-0.192,1.946,-0.007,0.012,-0.022
27127,-9.802,-0.194,1.958,-0.007,0.013,-0.021
27230,-9.79,-0.189,1.949,-0.007,0.013,-0.021
27333,-9.792,-0.201,1.954,-0.007,0.013,-0.021
27436,-9.792,-0.184,1.963,-0.007,0.013,-0.021
27539,-9.795,-0.199,1.949,-0.008,0.014,-0.021
27642,-9.795,-0.192,1.944,-0.006,0.013,-0.021
27745,-9.795,-0.192,1.954,-0.006,0.013,-0.021
27848,-9.799,-0.201,1.951,-0.006,0.013,-0.021
27951,-9.802,-0.201,1.963,-0.006,0.013,-0.021
28054,-9.797,-0.189,1.944,-0.006,0.013,-0.021
28157,-9.804,-0.196,1.942,-0.006,0.013,-0.021
28260,-9.797,-0.199,1.958,-0.006,0.013,-0.021
28363,-9.795,-0.196,1.956,-0.006,0.013,-0.021
28466,-9.792,-0.196,1.951,-0.006,0.012,-0.021
28569,-9.807,-0.194,1.961,-0.006,0.013,-0.021
28672,-9.799,-0.192,1.951,-0.006,0.013,-0.021
28775,-9.811,-0.192,1.946,-0.006,0.013,-0.021
28878,-9.804,-0.199,1.963,-0.006,0.013,-0.021
28981,-9.802,-0.192,1.956,-0.006,0.013,-0.021
29084,-9.797,-0.189,1.951,-0.006,0.013,-0.021
29187,-9.792,-0.189,1.956,-0.006,0.013,-0.021
29290,-9.809,-0.196,1.949,-0.005,0.012,-0.021
29393,-9.802,-0.194,1.946,-0.006,0.011,-0.022
29496,-9.804,-0.194,1.949,-0.006,0.012,-0.021
29599,-9.797,-0.196,1.963,-0.006,0.012,-0.021
29702,-9.804,-0.204,1.958,-0.007,0.013,-0.021
29805,-9.797,-0.184,1.968,-0.007,0.012,-0.022
29908,-9.802,-0.194,1.954,-0.006,0.013,-0.021
30011,-9.792,-0.201,1.951,-0.007,0.012,-0.021
30114,-9.795,-0.196,1.949,-0.007,0.012,-0.021
30217,-9.799,-0.199,1.946,-0.006,0.012,-0.021
30320,-9.799,-0.192,1.939,-0.007,0.012,-0.021
30423,-9.795,-0.184,1.954,-0.006,0.012,-0.021
30526,-9.79,-0.192,1.946,-0.006,0.013,-0.021
30629,-9.795,-0.199,1.942,-0.007,0.012,-0.021
30732,-9.802,-0.201,1.951,-0.007,0.012,-0.021
30835,-9.799,-0.199,1.961,-0.006,0.013,-0.021
30938,-9.792,-0.206,1.97,-0.007,0.013,-0.021
31041,-9.795,-0.182,1.961,-0.007,0.012,-0.021
31144,-9.787,-0.201,1.951,-0.007,0.013,-0.021
31247,-9.795,-0.194,1.968,-0.007,0.013,-0.022
31350,-9.799,-0.189,1.968,-0.006,0.013,-0.021
31453,-9.792,-0.199,1.937,-0.007,0.013,-0.021
31556,-9.802,-0.189,1.949,-0.006,0.013,-0.021
31659,-9.787,-0.189,1.961,-0.007,0.013,-0.021
31762,-9.797,-0.194,1.949,-0.006,0.013,-0.021
31865,-9.792,-0.184,1.966,-0.006,0.013,-0.021
31968,-9.797,-0.187,1.961,-0.007,0.013,-0.021
32071,-9.787,-0.196,1.949,-0.007,0.013,-0.021
32174,-9.792,-0.189,1.954,-0.007,0.013,-0.021
32277,-9.797,-0.194,1.944,-0.007,0.013,-0.021
32380,-9.792,-0.196,1.946,-0.007,0.013,-0.021
32483,-9.792,-0.196,1.956,-0.007,0.013,-0.021
32586,-9.799,-0.196,1.954,-0.007,0.013,-0.021
32689,-9.799,-0.194,1.951,-0.007,0.012,-0.021
32792,-9.807,-0.204,1.958,-0.007,0.013,-0.021
32895,-9.795,-0.194,1.951,-0.007,0.013,-0.021
32998,-9.809,-0.199,1.942,-0.007,0.013,-0.021
33101,-9.799,-0.189,1.954,-0.006,0.013,-0.021
33204,-9.792,-0.184,1.951,-0.006,0.013,-0.021
33307,-9.804,-0.192,1.944,-0.007,0.012,-0.021
33410,-9.807,-0.187,1.954,-0.007,0.013,-0.021
33513,-9.804,-0.199,1.954,-0.007,0.012,-0.021
33616,-9.797,-0.187,1.968,-0.007,0.013,-0.021
33719,-9.787,-0.187,1.954,-0.006,0.012,-0.021
33822,-9.795,-0.199,1.949,-0.007,0.013,-0.021
33925,-9.792,-0.189,1.961,-0.007,0.013,-0.021
34028,-9.797,-0.204,1.925,-0.007,0.012,-0.022
34131,-9.799,-0.206,1.966,-0.007,0.013,-0.021
34234,-9.792,-0.194,1.951,-0.006,0.013,-0.021
34337,-9.809,-0.187,1.958,-0.006,0.013,-0.021
34440,-9.799,-0.187,1.961,-0.007,0.012,-0.021
34543,-9.807,-0.201,1.956,-0.007,0.012,-0.021
34646,-9.804,-0.196,1.958,-0.006,0.013,-0.021
34749,-9.799,-0.187,1.951,-0.007,0.013,-0.022
34852,-9.797,-0.194,1.944,-0.006,0.013,-0.021
34955,-9.799,-0.204,1.956,-0.007,0.012,-0.021
35058,-9.802,-0.194,1.963,-0.007,0.012,-0.021
35161,-9.802,-0.189,1.942,-0.006,0.013,-0.021
35264,-9.802,-0.192,1.951,-0.007,0.013,-0.021
35367,-9.802,-0.189,1.949,-0.006,0.013,-0.021
35470,-9.795,-0.199,1.946,-0.007,0.013,-0.021
35573,-9.785,-0.199,1.951,-0.006,0.013,-0.021
35676,-9.795,-0.187,1.958,-0.006,0.013,-0.021
35779,-9.799,-0.201,1.944,-0.007,0.012,-0.021
35882,-9.783,-0.196,1.942,-0.006,0.013,-0.021
35985,-9.795,-0.194,1.961,-0.007,0.013,-0.021
36088,-9.802,-0.189,1.956,-0.006,0.012,-0.021
36191,-9.797,-0.196,1.966,-0.007,0.012,-0.021
36294,-9.802,-0.196,1.949,-0.007,0.012,-0.022
36397,-9.799,-0.196,1.946,-0.006,0.012,-0.021
36500,-9.792,-0.192,1.939,-0.007,0.013,-0.021
36603,-9.802,-0.199,1.946,-0.007,0.013,-0.021
36706,-9.807,-0.184,1.944,-0.007,0.013,-0.021
36809,-9.802,-0.187,1.951,-0.007,0.013,-0.021
36912,-9.809,-0.194,1.939,-0.006,0.012,-0.021
37015,-9.792,-0.184,1.963,-0.007,0.013,-0.021
37118,-9.79,-0.194,1.939,-0.006,0.013,-0.022
37221,-9.795,-0.199,1.946,-0.007,0.013,-0.021
37324,-9.804,-0.199,1.956,-0.007,0.013,-0.021
37427,-9.804,-0.192,1.932,-0.007,0.012,-0.021
37530,-9.807,-0.196,1.946,-0.006,0.012,-0.021
37633,-9.797,-0.196,1.954,-0.007,0.012,-0.021
37736,-9.799,-0.206,1.946,-0.007,0.013,-0.021
37839,-9.799,-0.192,1.944,-0.006,0.013,-0.021
37942,-9.792,-0.201,1.942,-0.007,0.012,-0.021
38045,-9.795,-0.196,1.942,-0.007,0.013,-0.021
38148,-9.79,-0.199,1.939,-0.007,0.013,-0.021
38251,-9.797,-0.199,1.954,-0.006,0.013,-0.022
38354,-9.802,-0.187,1.944,-0.007,0.012,-0.021
38457,-9.804,-0.199,1.958,-0.007,0.013,-0.021
38560,-9.785,-0.187,1.951,-0.006,0.013,-0.021
38663,-9.811,-0.184,1.944,-0.006,0.013,-0.021
38766,-9.797,-0.194,1.956,-0.007,0.013,-0.021
38869,-9.795,-0.199,1.937,-0.007,0.013,-0.021
38972,-9.799,-0.206,1.942,-0.007,0.013,-0.021
39075,-9.802,-0.194,1.949,-0.007,0.013,-0.022
39178,-9.799,-0.194,1.949,-0.007,0.012,-0.021
39281,-9.785,-0.194,1.958,-0.007,0.013,-0.022
39384,-9.792,-0.189,1.944,-0.007,0.013,-0.021
39487,-9.797,-0.194,1.958,-0.006,0.013,-0.021
39590,-9.797,-0.194,1.949,-0.007,0.013,-0.021
39693,-9.797,-0.206,1.958,-0.007,0.012,-0.021
39796,-9.79,-0.192,1.956,-0.007,0.013,-0.021
39899,-9.79,-0.201,1.951,-0.006,0.013,-0.021
40002,-9.795,-0.189,1.949,-0.007,0.012,-0.021
40105,-9.802,-0.196,1.958,-0.006,0.013,-0.021
40208,-9.787,-0.192,1.949,-0.007,0.013,-0.021
40311,-9.792,-0.196,1.954,-0.007,0.013,-0.021
40414,-9.799,-0.199,1.944,-0.007,0.013,-0.021
40517,-9.792,-0.196,1.954,-0.007,0.012,-0.021
40620,-9.79,-0.194,1.942,-0.007,0.012,-0.021
40723,-9.795,-0.201,1.954,-0.006,0.013,-0.021
40826,-9.795,-0.199,1.946,-0.007,0.012,-0.021
40929,-9.792,-0.196,1.963,-0.007,0.012,-0.021
41032,-9.802,-0.201,1.939,-0.007,0.012,-0.021
41135,-9.797,-0.187,1.958,-0.007,0.013,-0.021
41238,-9.795,-0.192,1.946,-0.006,0.013,-0.021
41341,-9.787,-0.192,1.956,-0.007,0.012,-0.021
41444,-9.804,-0.194,1.951,-0.007,0.013,-0.022
41547,-9.802,-0.196,1.966,-0.007,0.012,-0.021
41650,-9.795,-0.192,1.946,-0.007,0.012,-0.021
41753,-9.795,-0.192,1.954,-0.007,0.012,-0.021
41856,-9.797,-0.196,1.951,-0.007,0.013,-0.021
41959,-9.795,-0.196,1.935,-0.007,0.013,-0.021
42062,-9.795,-0.189,1.951,-0.006,0.013,-0.021
42165,-9.802,-0.18,1.946,-0.007,0.013,-0.022
42268,-9.79,-0.199,1.963,-0.006,0.012,-0.022
42371,-9.787,-0.189,1.954,-0.007,0.013,-0.021
42474,-9.799,-0.192,1.946,-0.006,0.013,-0.021
42577,-9.79,-0.196,1.949,-0.006,0.012,-0.021
42680,-9.799,-0.189,1.956,-0.007,0.012,-0.021
42783,-9.797,-0.192,1.954,-0.007,0.013,-0.022
42886,-9.802,-0.189,1.951,-0.006,0.013,-0.021
42989,-9.795,-0.18,1.954,-0.007,0.013,-0.021
43092,-9.797,-0.196,1.944,-0.007,0.012,-0.021
43195,-9.792,-0.201,1.956,-0.007,0.013,-0.021
43298,-9.795,-0.196,1.939,-0.007,0.013,-0.021
43401,-9.802,-0.194,1.949,-0.006,0.013,-0.021
43504,-9.807,-0.187,1.958,-0.006,0.013,-0.021
43607,-9.795,-0.201,1.954,-0.007,0.013,-0.021
43710,-9.792,-0.199,1.932,-0.007,0.012,-0.021
43813,-9.783,-0.187,1.951,-0.007,0.013,-0.021
43916,-9.814,-0.196,1.951,-0.007,0.012,-0.021
44019,-9.79,-0.187,1.946,-0.006,0.013,-0.021
44122,-9.802,-0.199,1.946,-0.006,0.012,-0.021
44225,-9.804,-0.194,1.935,-0.007,0.013,-0.021
44328,-9.797,-0.192,1.937,-0.007,0.013,-0.021
44431,-9.79,-0.189,1.956,-0.007,0.012,-0.022
44534,-9.795,-0.18,1.963,-0.007,0.013,-0.021
44637,-9.799,-0.194,1.958,-0.006,0.013,-0.021
44740,-9.804,-0.187,1.951,-0.007,0.013,-0.021
44843,-9.792,-0.196,1.949,-0.007,0.013,-0.021
44946,-9.797,-0.192,1.961,-0.006,0.013,-0.021
45049,-9.804,-0.187,1.958,-0.007,0.012,-0.021
45152,-9.795,-0.196,1.937,-0.007,0.013,-0.021
45255,-9.792,-0.194,1.946,-0.006,0.013,-0.021
45358,-9.797,-0.196,1.946,-0.007,0.013,-0.021
45461,-9.792,-0.196,1.966,-0.007,0.013,-0.021
45564,-9.799,-0.18,1.961,-0.006,0.012,-0.021
45667,-9.799,-0.194,1.956,-0.006,0.013,-0.021
45770,-9.795,-0.194,1.939,-0.007,0.013,-0.021
45873,-9.797,-0.189,1.951,-0.007,0.013,-0.021
45976,-9.795,-0.184,1.961,-0.007,0.012,-0.021
46079,-9.785,-0.184,1.966,-0.007,0.012,-0.021
46182,-9.802,-0.184,1.954,-0.007,0.012,-0.021
46285,-9.804,-0.189,1.961,-0.006,0.013,-0.021
46388,-9.797,-0.192,1.946,-0.006,0.012,-0.021
46491,-9.795,-0.201,1.961,-0.007,0.013,-0.021
46594,-9.787,-0.199,1.951,-0.007,0.012,-0.021
46697,-9.811,-0.194,1.966,-0.007,0.013,-0.021
46800,-9.807,-0.199,1.956,-0.007,0.013,-0.021
46903,-9.785,-0.194,1.954,-0.006,0.013,-0.022
47006,-9.807,-0.192,1.951,-0.007,0.012,-0.021
47109,-9.795,-0.187,1.963,-0.007,0.012,-0.021
47212,-9.792,-0.194,1.949,-0.007,0.012,-0.022
47315,-9.797,-0.199,1.954,-0.007,0.012,-0.021
47418,-9.795,-0.194,1.958,-0.006,0.013,-0.021
47521,-9.785,-0.192,1.946,-0.006,0.013,-0.021
47624,-9.785,-0.189,1.956,-0.007,0.013,-0.021
47727,-9.802,-0.194,1.958,-0.007,0.013,-0.021
47830,-9.799,-0.196,1.961,-0.007,0.012,-0.021
47933,-9.787,-0.184,1.944,-0.006,0.012,-0.021
48036,-9.799,-0.189,1.951,-0.006,0.013,-0.021
48139,-9.797,-0.201,1.963,-0.007,0.012,-0.021
48242,-9.785,-0.206,1.958,-0.007,0.013,-0.021
48345,-9.795,-0.189,1.942,-0.006,0.012,-0.021
48448,-9.797,-0.196,1.958,-0.007,0.013,-0.021
48551,-9.797,-0.196,1.954,-0.006,0.013,-0.021
48654,-9.795,-0.196,1.956,-0.007,0.012,-0.021
48757,-9.79,-0.184,1.946,-0.006,0.013,-0.021
48860,-9.795,-0.189,1.956,-0.006,0.013,-0.021
48963,-9.792,-0.192,1.954,-0.006,0.013,-0.021
49066,-9.792,-0.184,1.956,-0.007,0.013,-0.021
49169,-9.795,-0.192,1.946,-0.007,0.013,-0.021
49272,-9.799,-0.189,1.961,-0.006,0.012,-0.021
49375,-9.79,-0.196,1.954,-0.006,0.013,-0.021
49478,-9.802,-0.189,1.956,-0.006,0.012,-0.021
49581,-9.79,-0.194,1.966,-0.007,0.013,-0.022
49684,-9.799,-0.199,1.961,-0.007,0.013,-0.021
49787,-9.802,-0.199,1.944,-0.007,0.012,-0.022
49890,-9.792,-0.194,1.949,-0.006,0.013,-0.021
49993,-9.792,-0.196,1.946,-0.007,0.013,-0.021
50096,-9.797,-0.189,1.951,-0.006,0.013,-0.021
50199,-9.795,-0.192,1.966,-0.006,0.013,-0.021
50302,-9.807,-0.184,1.946,-0.006,0.013,-0.021
50405,-9.795,-0.196,1.949,-0.007,0.012,-0.022
50508,-9.787,-0.199,1.956,-0.007,0.012,-0.021
50611,-9.802,-0.199,1.944,-0.007,0.013,-0.021
50714,-9.792,-0.196,1.951,-0.007,0.012,-0.021
50817,-9.792,-0.182,1.944,-0.007,0.013,-0.021
50920,-9.799,-0.184,1.954,-0.007,0.013,-0.021
51023,-9.804,-0.189,1.946,-0.006,0.013,-0.021
51126,-9.795,-0.18,1.954,-0.006,0.013,-0.021
51229,-9.795,-0.201,1.951,-0.007,0.013,-0.021
51332,-9.804,-0.184,1.954,-0.007,0.013,-0.021
51435,-9.809,-0.194,1.935,-0.007,0.013,-0.021
51538,-9.804,-0.192,1.951,-0.007,0.012,-0.021
51641,-9.799,-0.177,1.954,-0.006,0.013,-0.021
51744,-9.795,-0.192,1.951,-0.007,0.013,-0.021
51847,-9.797,-0.192,1.954,-0.006,0.013,-0.021
51950,-9.797,-0.194,1.935,-0.007,0.013,-0.021
52053,-9.804,-0.189,1.963,-0.007,0.012,-0.021
52156,-9.807,-0.194,1.966,-0.006,0.013,-0.021
52259,-9.792,-0.199,1.954,-0.006,0.013,-0.021
52362,-9.797,-0.196,1.954,-0.007,0.012,-0.021
52465,-9.792,-0.196,1.954,-0.007,0.013,-0.021
52568,-9.799,-0.192,1.961,-0.006,0.013,-0.021
52671,-9.797,-0.192,1.942,-0.006,0.013,-0.021
52774,-9.797,-0.194,1.937,-0.006,0.013,-0.022
52877,-9.795,-0.196,1.951,-0.006,0.013,-0.021
52980,-9.797,-0.189,1.942,-0.006,0.013,-0.021
53083,-9.795,-0.199,1.951,-0.007,0.013,-0.021
53186,-9.799,-0.18,1.954,-0.007,0.012,-0.021
53289,-9.799,-0.192,1.946,-0.007,0.013,-0.021
53392,-9.802,-0.187,1.942,-0.007,0.012,-0.021
53495,-9.79,-0.192,1.961,-0.006,0.013,-0.021
53598,-9.783,-0.184,1.942,-0.007,0.013,-0.021
53701,-9.804,-0.199,1.961,-0.007,0.013,-0.021
53804,-9.799,-0.201,1.956,-0.007,0.013,-0.021
53907,-9.799,-0.206,1.954,-0.006,0.013,-0.021
54010,-9.799,-0.192,1.951,-0.007,0.012,-0.021
54113,-9.795,-0.192,1.944,-0.007,0.013,-0.021
54216,-9.809,-0.199,1.949,-0.007,0.012,-0.021
54319,-9.804,-0.196,1.958,-0.007,0.013,-0.021
54422,-9.79,-0.199,1.949,-0.006,0.013,-0.021
54525,-9.804,-0.211,1.954,-0.006,0.012,-0.021
54628,-9.804,-0.204,1.963,-0.007,0.013,-0.021
54731,-9.792,-0.189,1.954,-0.006,0.012,-0.021
54834,-9.792,-0.192,1.937,-0.006,0.012,-0.021
54937,-9.783,-0.192,1.963,-0.007,0.013,-0.021
55040,-9.792,-0.196,1.961,-0.006,0.013,-0.021
55143,-9.792,-0.199,1.949,-0.007,0.013,-0.021
55246,-9.804,-0.201,1.954,-0.006,0.012,-0.021
55349,-9.797,-0.201,1.944,-0.007,0.013,-0.021
55452,-9.809,-0.184,1.958,-0.007,0.012,-0.021
55555,-9.792,-0.189,1.951,-0.007,0.013,-0.021
55658,-9.792,-0.201,1.968,-0.007,0.012,-0.021
55761,-9.804,-0.201,1.961,-0.007,0.012,-0.021
55864,-9.79,-0.192,1.942,-0.007,0.013,-0.021
55967,-9.795,-0.192,1.946,-0.007,0.013,-0.021
56070,-9.802,-0.189,1.966,-0.007,0.013,-0.021
56173,-9.799,-0.187,1.961,-0.007,0.013,-0.022
56276,-9.795,-0.196,1.951,-0.006,0.012,-0.021
56379,-9.802,-0.187,1.951,-0.007,0.013,-0.022
56482,-9.797,-0.189,1.949,-0.006,0.013,-0.021
56585,-9.792,-0.194,1.942,-0.007,0.013,-0.021
56688,-9.797,-0.189,1.946,-0.006,0.013,-0.021
56791,-9.795,-0.201,1.942,-0.006,0.013,-0.021
56894,-9.797,-0.184,1.961,-0.007,0.013,-0.021
56997,-9.792,-0.187,1.958,-0.007,0.013,-0.021
57100,-9.802,-0.192,1.944,-0.007,0.012,-0.022
57203,-9.795,-0.189,1.951,-0.007,0.013,-0.021
57306,-9.802,-0.192,1.954,-0.006,0.013,-0.021
57409,-9.797,-0.196,1.949,-0.007,0.013,-0.021
57512,-9.787,-0.177,1.942,-0.006,0.013,-0.021
57615,-9.807,-0.194,1.939,-0.006,0.012,-0.022
57718,-9.802,-0.206,1.963,-0.007,0.013,-0.021
57821,-9.804,-0.175,1.963,-0.006,0.013,-0.021
57924,-9.799,-0.201,1.927,-0.007,0.013,-0.021
58027,-9.807,-0.199,1.961,-0.006,0.012,-0.021
58130,-9.799,-0.187,1.961,-0.007,0.013,-0.021
58233,-9.799,-0.196,1.956,-0.007,0.012,-0.021
58336,-9.792,-0.192,1.949,-0.007,0.013,-0.021
58439,-9.795,-0.184,1.975,-0.007,0.013,-0.021
58542,-9.795,-0.182,1.932,-0.007,0.013,-0.021
58645,-9.783,-0.199,1.954,-0.006,0.013,-0.021
58748,-9.797,-0.182,1.954,-0.007,0.013,-0.021
58851,-9.799,-0.201,1.951,-0.007,0.013,-0.021
58954,-9.797,-0.184,1.946,-0.006,0.013,-0.021
59057,-9.797,-0.201,1.954,-0.007,0.013,-0.021
59160,-9.799,-0.196,1.939,-0.006,0.012,-0.021
59263,-9.807,-0.192,1.946,-0.007,0.013,-0.021
59366,-9.792,-0.196,1.968,-0.006,0.012,-0.021
59469,-9.795,-0.189,1.961,-0.007,0.013,-0.021
59572,-9.807,-0.194,1.958,-0.007,0.012,-0.021
59675,-9.795,-0.192,1.937,-0.007,0.013,-0.021
59778,-9.79,-0.199,1.949,-0.006,0.013,-0.021
59881,-9.809,-0.194,1.946,-0.006,0.012,-0.021
59984,-9.792,-0.199,1.944,-0.007,0.013,-0.021
60087,-9.792,-0.18,1.949,-0.007,0.013,-0.022
60190,-9.804,-0.196,1.958,-0.006,0.013,-0.021
60293,-9.802,-0.192,1.958,-0.007,0.013,-0.021
60396,-9.797,-0.194,1.961,-0.006,0.013,-0.021
60499,-9.799,-0.199,1.966,-0.007,0.012,-0.021
60602,-9.795,-0.189,1.946,-0.006,0.013,-0.021
60705,-9.787,-0.201,1.954,-0.007,0.013,-0.021
60808,-9.792,-0.201,1.942,-0.007,0.012,-0.021
60911,-9.802,-0.192,1.946,-0.007,0.013,-0.021
61014,-9.706,-0.189,1.741,-0.011,-0.334,-0.012
61117,-9.795,-0.172,2.808,-0.005,-0.266,-0.011
61220,-9.685,-0.175,2.6,-0.006,0.001,-0.02
61323,-9.692,-0.168,2.576,-0.006,0.012,-0.02
61426,-9.687,-0.17,2.567,-0.006,0.013,-0.02
61529,-9.692,-0.175,2.591,-0.006,0.013,-0.021
61632,-9.689,-0.172,2.583,-0.006,0.013,-0.021
61735,-9.682,-0.163,2.591,-0.006,0.013,-0.02
61838,-9.694,-0.17,2.574,-0.006,0.013,-0.021
61941,-9.687,-0.17,2.593,-0.006,0.013,-0.02
62044,-9.687,-0.18,2.567,-0.006,0.013,-0.02
62147,-9.682,-0.17,2.581,-0.006,0.012,-0.021
62250,-9.687,-0.177,2.576,-0.007,0.012,-0.021
62353,-9.682,-0.17,2.574,-0.006,0.013,-0.021
62456,-9.673,-0.175,2.588,-0.006,0.013,-0.02
62559,-9.687,-0.172,2.583,-0.006,0.013,-0.02
62662,-9.687,-0.17,2.581,-0.006,0.013,-0.021
62765,-9.692,-0.177,2.595,-0.006,0.013,-0.02
62868,-9.692,-0.17,2.581,-0.006,0.012,-0.02
62971,-9.692,-0.18,2.588,-0.006,0.013,-0.021
63074,-9.687,-0.163,2.574,-0.006,0.012,-0.02
63177,-9.682,-0.168,2.583,-0.006,0.013,-0.02
63280,-9.687,-0.177,2.598,-0.006,0.012,-0.02
63383,-9.687,-0.177,2.564,-0.006,0.013,-0.021
63486,-9.687,-0.168,2.571,-0.006,0.013,-0.021
63589,-9.687,-0.168,2.586,-0.006,0.013,-0.021
63692,-9.677,-0.163,2.586,-0.006,0.012,-0.02
63795,-9.687,-0.18,2.571,-0.006,0.013,-0.02
63898,-9.694,-0.182,2.583,-0.006,0.013,-0.021
64001,-9.694,-0.17,2.581,-0.006,0.013,-0.02
64104,-9.68,-0.17,2.569,-0.006,0.013,-0.021
64207,-9.694,-0.175,2.567,-0.006,0.013,-0.021
64310,-9.692,-0.177,2.591,-0.006,0.013,-0.021
64413,-9.694,-0.182,2.583,-0.006,0.013,-0.021
64516,-9.682,-0.165,2.576,-0.006,0.013,-0.02
64619,-9.687,-0.175,2.574,-0.006,0.013,-0.021
64722,-9.694,-0.172,2.581,-0.006,0.012,-0.02
64825,-9.685,-0.18,2.581,-0.006,0.013,-0.021
64928,-9.692,-0.184,2.567,-0.006,0.013,-0.021
65031,-9.689,-0.17,2.588,-0.006,0.013,-0.02
65134,-9.689,-0.17,2.567,-0.006,0.013,-0.021
65237,-9.685,-0.17,2.579,-0.006,0.013,-0.021
65340,-9.687,-0.17,2.583,-0.006,0.013,-0.021
65443,-9.694,-0.163,2.588,-0.006,0.013,-0.02
65546,-9.694,-0.17,2.579,-0.006,0.013,-0.02
65649,-9.685,-0.172,2.586,-0.006,0.013,-0.021
65752,-9.68,-0.177,2.583,-0.006,0.013,-0.021
65855,-9.699,-0.182,2.574,-0.006,0.012,-0.02
65958,-9.689,-0.175,2.588,-0.006,0.013,-0.02
66061,-9.692,-0.165,2.583,-0.006,0.013,-0.02
66164,-9.689,-0.182,2.574,-0.006,0.012,-0.021
66267,-9.689,-0.168,2.588,-0.006,0.013,-0.021
66370,-9.689,-0.18,2.581,-0.006,0.013,-0.02
66473,-9.685,-0.17,2.579,-0.006,0.013,-0.02
66576,-9.685,-0.182,2.591,-0.006,0.013,-0.02
66679,-9.701,-0.177,2.571,-0.006,0.013,-0.02
66782,-9.682,-0.172,2.576,-0.006,0.013,-0.02
66885,-9.687,-0.168,2.579,-0.006,0.013,-0.021
66988,-9.697,-0.165,2.586,-0.006,0.013,-0.021
67091,-9.692,-0.165,2.583,-0.006,0.013,-0.02
67194,-9.692,-0.168,2.588,-0.006,0.013,-0.02
67297,-9.685,-0.177,2.571,-0.006,0.013,-0.02
67400,-9.687,-0.172,2.588,-0.006,0.013,-0.021
67503,-9.689,-0.182,2.576,-0.006,0.013,-0.021
67606,-9.682,-0.175,2.579,-0.006,0.013,-0.021
67709,-9.685,-0.175,2.574,-0.006,0.013,-0.021
67812,-9.689,-0.175,2.579,-0.006,0.013,-0.02
67915,-9.694,-0.182,2.576,-0.006,0.013,-0.021
68018,-9.692,-0.168,2.586,-0.006,0.012,-0.021
68121,-9.692,-0.17,2.579,-0.006,0.013,-0.02
68224,-9.682,-0.168,2.581,-0.006,0.013,-0.021
68327,-9.689,-0.17,2.588,-0.006,0.013,-0.021
68430,-9.687,-0.165,2.595,-0.006,0.013,-0.021
68533,-9.685,-0.17,2.569,-0.006,0.013,-0.02
68636,-9.694,-0.17,2.588,-0.006,0.012,-0.02
68739,-9.682,-0.16,2.588,-0.006,0.013,-0.02
68842,-9.692,-0.17,2.586,-0.006,0.013,-0.02
68945,-9.694,-0.172,2.576,-0.006,0.013,-0.021
69048,-9.685,-0.172,2.579,-0.006,0.013,-0.021
69151,-9.689,-0.172,2.579,-0.006,0.013,-0.021
69254,-9.68,-0.175,2.581,-0.006,0.013,-0.02
69357,-9.68,-0.18,2.598,-0.006,0.012,-0.021
69460,-9.682,-0.18,2.593,-0.006,0.013,-0.021
69563,-9.687,-0.17,2.586,-0.006,0.013,-0.02
69666,-9.677,-0.16,2.576,-0.006,0.013,-0.021
69769,-9.68,-0.172,2.588,-0.006,0.013,-0.021
69872,-9.689,-0.168,2.571,-0.006,0.013,-0.021
69975,-9.685,-0.172,2.579,-0.006,0.012,-0.02
70078,-9.685,-0.175,2.591,-0.006,0.013,-0.021
70181,-9.682,-0.177,2.602,-0.006,0.013,-0.021
70284,-9.682,-0.177,2.574,-0.006,0.013,-0.021
70387,-9.687,-0.17,2.571,-0.006,0.013,-0.02
70490,-9.687,-0.165,2.579,-0.006,0.013,-0.021
70593,-9.685,-0.177,2.586,-0.006,0.013,-0.021
70696,-9.687,-0.177,2.588,-0.006,0.013,-0.02
70799,-9.68,-0.172,2.574,-0.006,0.013,-0.021
70902,-9.682,-0.18,2.579,-0.006,0.013,-0.02
71005,-9.682,-0.172,2.583,-0.006,0.013,-0.021
71108,-9.685,-0.18,2.593,-0.006,0.013,-0.021
71211,-9.689,-0.177,2.591,-0.006,0.013,-0.021
71314,-9.687,-0.172,2.571,-0.006,0.013,-0.021
71417,-9.687,-0.177,2.583,-0.006,0.013,-0.02
71520,-9.685,-0.172,2.583,-0.006,0.013,-0.02
71623,-9.694,-0.182,2.576,-0.006,0.013,-0.021
71726,-9.689,-0.168,2.579,-0.006,0.013,-0.021
71829,-9.685,-0.17,2.593,-0.006,0.013,-0.02
71932,-9.689,-0.168,2.591,-0.006,0.012,-0.021
72035,-9.692,-0.17,2.581,-0.006,0.013,-0.021
72138,-9.687,-0.175,2.588,-0.006,0.013,-0.02
72241,-9.687,-0.182,2.583,-0.006,0.012,-0.021
72344,-9.687,-0.17,2.6,-0.006,0.013,-0.02
72447,-9.692,-0.175,2.591,-0.006,0.013,-0.021
72550,-9.689,-0.172,2.583,-0.006,0.013,-0.02
72653,-9.68,-0.168,2.581,-0.006,0.013,-0.021
72756,-9.687,-0.184,2.581,-0.006,0.012,-0.02
72859,-9.687,-0.168,2.593,-0.006,0.013,-0.02
72962,-9.692,-0.175,2.581,-0.006,0.013,-0.021
73065,-9.685,-0.17,2.586,-0.006,0.013,-0.021
73168,-9.685,-0.17,2.598,-0.006,0.013,-0.021
73271,-9.701,-0.177,2.581,-0.006,0.013,-0.021
73374,-9.692,-0.177,2.583,-0.006,0.013,-0.02
73477,-9.682,-0.177,2.574,-0.006,0.013,-0.021
73580,-9.687,-0.184,2.591,-0.006,0.013,-0.02
73683,-9.682,-0.168,2.576,-0.006,0.013,-0.02
73786,-9.687,-0.163,2.583,-0.006,0.013,-0.02
73889,-9.689,-0.18,2.569,-0.006,0.013,-0.021
73992,-9.687,-0.17,2.588,-0.006,0.013,-0.021
74095,-9.692,-0.172,2.586,-0.006,0.012,-0.02
74198,-9.687,-0.17,2.586,-0.006,0.013,-0.021
74301,-9.685,-0.168,2.583,-0.006,0.013,-0.02
74404,-9.692,-0.175,2.579,-0.006,0.013,-0.021
74507,-9.687,-0.177,2.581,-0.006,0.013,-0.02
74610,-9.682,-0.163,2.588,-0.006,0.012,-0.021
74713,-9.689,-0.17,2.581,-0.006,0.013,-0.02
74816,-9.687,-0.175,2.591,-0.006,0.013,-0.02
74919,-9.687,-0.175,2.574,-0.006,0.013,-0.021
75022,-9.697,-0.18,2.586,-0.006,0.013,-0.02
75125,-9.692,-0.177,2.564,-0.006,0.013,-0.02
75228,-9.692,-0.17,2.588,-0.006,0.013,-0.02
75331,-9.694,-0.177,2.581,-0.006,0.013,-0.021
75434,-9.689,-0.163,2.598,-0.006,0.013,-0.02
75537,-9.692,-0.163,2.581,-0.006,0.013,-0.021
75640,-9.687,-0.168,2.579,-0.006,0.013,-0.021
75743,-9.689,-0.18,2.576,-0.006,0.013,-0.02
75846,-9.682,-0.17,2.588,-0.006,0.013,-0.021
75949,-9.687,-0.165,2.595,-0.006,0.013,-0.021
76052,-9.687,-0.17,2.591,-0.006,0.013,-0.021
76155,-9.689,-0.165,2.579,-0.006,0.013,-0.02
76258,-9.68,-0.175,2.567,-0.006,0.013,-0.02
76361,-9.687,-0.172,2.576,-0.006,0.013,-0.021
76464,-9.687,-0.17,2.586,-0.006,0.013,-0.021
76567,-9.692,-0.177,2.593,-0.006,0.013,-0.02
76670,-9.692,-0.163,2.583,-0.006,0.013,-0.02
76773,-9.694,-0.17,2.576,-0.006,0.013,-0.02
76876,-9.687,-0.165,2.593,-0.006,0.013,-0.02
76979,-9.689,-0.175,2.586,-0.006,0.013,-0.021
77082,-9.694,-0.177,2.579,-0.006,0.013,-0.021
77185,-9.675,-0.168,2.571,-0.006,0.013,-0.02
77288,-9.694,-0.175,2.571,-0.006,0.012,-0.021
77391,-9.685,-0.17,2.586,-0.006,0.013,-0.021
77494,-9.687,-0.18,2.583,-0.007,0.013,-0.021
77597,-9.699,-0.187,2.579,-0.006,0.013,-0.02
77700,-9.699,-0.168,2.574,-0.006,0.013,-0.02
77803,-9.692,-0.177,2.583,-0.006,0.012,-0.021
77906,-9.699,-0.184,2.583,-0.006,0.013,-0.02
78009,-9.685,-0.168,2.586,-0.006,0.013,-0.02
78112,-9.694,-0.172,2.591,-0.006,0.013,-0.02
78215,-9.697,-0.175,2.576,-0.006,0.013,-0.021
78318,-9.697,-0.165,2.571,-0.006,0.013,-0.021
78421,-9.694,-0.175,2.588,-0.006,0.013,-0.02
78524,-9.694,-0.168,2.571,-0.006,0.013,-0.02
78627,-9.689,-0.175,2.588,-0.006,0.013,-0.021
78730,-9.689,-0.175,2.588,-0.006,0.013,-0.021
78833,-9.68,-0.177,2.571,-0.006,0.012,-0.021
78936,-9.687,-0.175,2.569,-0.006,0.013,-0.021
79039,-9.692,-0.18,2.564,-0.006,0.013,-0.02
79142,-9.685,-0.163,2.579,-0.006,0.013,-0.02
79245,-9.687,-0.18,2.579,-0.006,0.013,-0.021
79348,-9.694,-0.177,2.588,-0.006,0.013,-0.021
79451,-9.689,-0.175,2.588,-0.007,0.013,-0.02
79554,-9.689,-0.175,2.581,-0.007,0.013,-0.02
79657,-9.687,-0.17,2.576,-0.006,0.013,-0.02
79760,-9.689,-0.17,2.576,-0.006,0.013,-0.021
79863,-9.685,-0.172,2.588,-0.006,0.013,-0.02
79966,-9.697,-0.172,2.583,-0.006,0.013,-0.021
80069,-9.699,-0.17,2.588,-0.006,0.013,-0.02
80172,-9.687,-0.17,2.571,-0.006,0.013,-0.02
80275,-9.687,-0.184,2.586,-0.006,0.013,-0.021
80378,-9.689,-0.175,2.588,-0.006,0.013,-0.02
80481,-9.692,-0.18,2.591,-0.006,0.013,-0.02
80584,-9.692,-0.17,2.571,-0.006,0.013,-0.02
80687,-9.692,-0.168,2.574,-0.006,0.013,-0.021
80790,-9.682,-0.163,2.581,-0.006,0.013,-0.021
80893,-9.687,-0.175,2.579,-0.006,0.013,-0.02
80996,-9.697,-0.168,2.602,-0.006,0.013,-0.02
81099,-9.685,-0.17,2.579,-0.006,0.013,-0.02
81202,-9.694,-0.165,2.574,-0.006,0.013,-0.021
81305,-9.689,-0.172,2.574,-0.006,0.013,-0.02
81408,-9.692,-0.172,2.579,-0.006,0.013,-0.021
81511,-9.689,-0.17,2.586,-0.006,0.012,-0.02
81614,-9.694,-0.172,2.586,-0.006,0.013,-0.021
81717,-9.694,-0.17,2.576,-0.006,0.013,-0.02
81820,-9.697,-0.175,2.576,-0.006,0.013,-0.021
81923,-9.692,-0.17,2.581,-0.006,0.013,-0.021
82026,-9.687,-0.17,2.581,-0.006,0.013,-0.021
82129,-9.692,-0.172,2.6,-0.006,0.013,-0.02
82232,-9.685,-0.168,2.586,-0.006,0.013,-0.021
82335,-9.687,-0.184,2.588,-0.006,0.012,-0.021
82438,-9.687,-0.177,2.576,-0.006,0.013,-0.02
82541,-9.682,-0.184,2.586,-0.006,0.012,-0.02
82644,-9.682,-0.18,2.576,-0.006,0.012,-0.021
82747,-9.687,-0.17,2.583,-0.006,0.013,-0.02
82850,-9.682,-0.168,2.576,-0.006,0.013,-0.02
82953,-9.692,-0.165,2.581,-0.006,0.012,-0.02
83056,-9.689,-0.168,2.586,-0.006,0.013,-0.02
83159,-9.689,-0.172,2.593,-0.006,0.013,-0.021
83262,-9.689,-0.175,2.591,-0.006,0.013,-0.02
83365,-9.68,-0.17,2.574,-0.006,0.013,-0.02
83468,-9.68,-0.168,2.593,-0.006,0.013,-0.02
83571,-9.685,-0.17,2.6,-0.006,0.013,-0.02
83674,-9.694,-0.175,2.588,-0.006,0.013,-0.02
83777,-9.682,-0.165,2.591,-0.007,0.013,-0.021
83880,-9.701,-0.168,2.586,-0.006,0.013,-0.021
83983,-9.687,-0.177,2.586,-0.006,0.013,-0.021
84086,-9.692,-0.17,2.583,-0.006,0.013,-0.02
84189,-9.685,-0.172,2.583,-0.006,0.013,-0.02
84292,-9.692,-0.172,2.593,-0.006,0.012,-0.021
84395,-9.685,-0.16,2.586,-0.006,0.013,-0.02
84498,-9.694,-0.172,2.583,-0.006,0.013,-0.021
84601,-9.692,-0.177,2.583,-0.006,0.012,-0.02
84704,-9.687,-0.168,2.574,-0.006,0.013,-0.02
84807,-9.68,-0.177,2.586,-0.006,0.013,-0.021
84910,-9.685,-0.18,2.574,-0.006,0.013,-0.021
85013,-9.682,-0.177,2.583,-0.006,0.013,-0.021
85116,-9.685,-0.175,2.581,-0.007,0.013,-0.021
85219,-9.689,-0.175,2.574,-0.006,0.013,-0.02
85322,-9.682,-0.175,2.579,-0.006,0.013,-0.021
85425,-9.677,-0.172,2.591,-0.007,0.013,-0.02
85528,-9.692,-0.172,2.579,-0.006,0.013,-0.021
85631,-9.694,-0.177,2.576,-0.006,0.013,-0.021
85734,-9.687,-0.182,2.591,-0.006,0.013,-0.021
85837,-9.685,-0.172,2.576,-0.006,0.013,-0.021
85940,-9.692,-0.168,2.588,-0.006,0.013,-0.021
86043,-9.694,-0.177,2.602,-0.006,0.013,-0.02
86146,-9.689,-0.165,2.588,-0.006,0.012,-0.021
86249,-9.687,-0.168,2.588,-0.007,0.013,-0.021
86352,-9.68,-0.175,2.581,-0.007,0.013,-0.02
86455,-9.694,-0.172,2.583,-0.006,0.013,-0.021
86558,-9.697,-0.165,2.579,-0.006,0.012,-0.021
86661,-9.692,-0.18,2.586,-0.006,0.012,-0.021
86764,-9.694,-0.165,2.583,-0.006,0.013,-0.021
86867,-9.692,-0.172,2.595,-0.006,0.013,-0.02
86970,-9.682,-0.168,2.586,-0.006,0.013,-0.021
87073,-9.687,-0.175,2.588,-0.006,0.012,-0.021
87176,-9.697,-0.175,2.583,-0.006,0.013,-0.02
87279,-9.685,-0.168,2.569,-0.006,0.013,-0.02
87382,-9.687,-0.177,2.598,-0.007,0.013,-0.021
87485,-9.687,-0.163,2.576,-0.006,0.013,-0.021
87588,-9.687,-0.168,2.583,-0.006,0.013,-0.021
87691,-9.697,-0.172,2.583,-0.006,0.013,-0.02
87794,-9.682,-0.18,2.588,-0.006,0.012,-0.02
87897,-9.692,-0.165,2.571,-0.006,0.013,-0.02
88000,-9.687,-0.165,2.571,-0.006,0.013,-0.02
88103,-9.689,-0.172,2.581,-0.006,0.013,-0.021
88206,-9.694,-0.172,2.569,-0.006,0.013,-0.021
88309,-9.682,-0.172,2.581,-0.006,0.013,-0.02
88412,-9.687,-0.17,2.581,-0.006,0.013,-0.021
88515,-9.694,-0.17,2.588,-0.006,0.013,-0.021
88618,-9.68,-0.175,2.595,-0.006,0.013,-0.021
88721,-9.689,-0.168,2.574,-0.006,0.013,-0.021
88824,-9.687,-0.168,2.593,-0.007,0.012,-0.02
88927,-9.685,-0.172,2.586,-0.006,0.013,-0.021
89030,-9.699,-0.18,2.583,-0.006,0.013,-0.021
89133,-9.689,-0.165,2.586,-0.006,0.013,-0.021
89236,-9.694,-0.175,2.586,-0.006,0.013,-0.021
89339,-9.687,-0.182,2.588,-0.006,0.012,-0.021
89442,-9.682,-0.172,2.588,-0.006,0.013,-0.021
89545,-9.697,-0.165,2.583,-0.006,0.013,-0.021
89648,-9.687,-0.175,2.579,-0.006,0.013,-0.021
89751,-9.697,-0.17,2.574,-0.006,0.013,-0.02
89854,-9.699,-0.165,2.569,-0.006,0.013,-0.021
89957,-9.68,-0.17,2.591,-0.006,0.013,-0.02
90060,-9.697,-0.158,2.598,-0.006,0.013,-0.021
90163,-9.697,-0.177,2.588,-0.006,0.013,-0.02
90266,-9.689,-0.172,2.583,-0.006,0.013,-0.021
90369,-9.692,-0.17,2.583,-0.007,0.013,-0.02
90472,-9.692,-0.172,2.579,-0.006,0.012,-0.02
90575,-9.687,-0.168,2.574,-0.006,0.013,-0.021
90678,-9.689,-0.177,2.581,-0.006,0.013,-0.02
90781,-9.68,-0.182,2.576,-0.007,0.013,-0.021
90884,-9.682,-0.177,2.574,-0.006,0.013,-0.021
90987,-9.692,-0.172,2.588,-0.006,0.013,-0.021
91090,-9.689,-0.163,2.579,-0.006,0.013,-0.021
91193,-9.687,-0.175,2.588,-0.006,0.013,-0.02
91296,-9.685,-0.175,2.581,-0.006,0.013,-0.021
91399,-9.694,-0.168,2.571,-0.007,0.013,-0.02
91502,-9.689,-0.16,2.576,-0.006,0.013,-0.021
91605,-9.694,-0.175,2.588,-0.006,0.013,-0.021
91708,-9.677,-0.175,2.555,-0.006,0.013,-0.021
91811,-9.694,-0.177,2.571,-0.006,0.013,-0.021
91914,-9.694,-0.177,2.586,-0.006,0.013,-0.021
92017,-9.689,-0.168,2.588,-0.006,0.013,-0.021
92120,-9.687,-0.172,2.586,-0.006,0.013,-0.021
92223,-9.687,-0.177,2.574,-0.006,0.013,-0.021
92326,-9.694,-0.184,2.6,-0.006,0.013,-0.021
92429,-9.694,-0.182,2.581,-0.006,0.013,-0.021
92532,-9.687,-0.175,2.576,-0.006,0.013,-0.02
92635,-9.689,-0.172,2.593,-0.006,0.013,-0.021
92738,-9.685,-0.168,2.586,-0.006,0.013,-0.02
92841,-9.694,-0.175,2.598,-0.006,0.013,-0.021
92944,-9.687,-0.168,2.593,-0.006,0.013,-0.02
93047,-9.685,-0.18,2.581,-0.006,0.013,-0.02
93150,-9.689,-0.17,2.586,-0.006,0.013,-0.021
93253,-9.685,-0.168,2.579,-0.006,0.013,-0.021
93356,-9.687,-0.16,2.591,-0.006,0.013,-0.021
93459,-9.687,-0.177,2.579,-0.006,0.013,-0.02
93562,-9.694,-0.18,2.583,-0.007,0.013,-0.021
93665,-9.677,-0.17,2.569,-0.006,0.013,-0.021
93768,-9.685,-0.172,2.579,-0.006,0.012,-0.021
93871,-9.675,-0.172,2.583,-0.006,0.013,-0.02
93974,-9.687,-0.168,2.583,-0.006,0.013,-0.021
94077,-9.699,-0.184,2.595,-0.006,0.013,-0.02
94180,-9.694,-0.175,2.583,-0.006,0.013,-0.021
94283,-9.689,-0.165,2.588,-0.006,0.012,-0.02
94386,-9.697,-0.175,2.581,-0.006,0.013,-0.021
94489,-9.68,-0.172,2.583,-0.006,0.013,-0.02
94592,-9.685,-0.168,2.579,-0.006,0.012,-0.021
94695,-9.694,-0.163,2.591,-0.006,0.012,-0.021
94798,-9.694,-0.18,2.571,-0.006,0.013,-0.021
94901,-9.682,-0.17,2.588,-0.006,0.013,-0.02
95004,-9.699,-0.172,2.591,-0.006,0.013,-0.021
95107,-9.687,-0.172,2.586,-0.006,0.013,-0.021
95210,-9.689,-0.177,2.581,-0.006,0.013,-0.021
95313,-9.687,-0.172,2.588,-0.006,0.013,-0.021
95416,-9.685,-0.175,2.564,-0.006,0.013,-0.021
95519,-9.689,-0.17,2.576,-0.006,0.013,-0.021
95622,-9.68,-0.172,2.579,-0.006,0.013,-0.021
95725,-9.689,-0.172,2.576,-0.006,0.013,-0.021
95828,-9.68,-0.177,2.571,-0.007,0.013,-0.021
95931,-9.689,-0.163,2.593,-0.006,0.013,-0.02
96034,-9.692,-0.172,2.586,-0.006,0.013,-0.02
96137,-9.682,-0.168,2.581,-0.006,0.013,-0.021
96240,-9.692,-0.17,2.571,-0.006,0.013,-0.021
96343,-9.692,-0.172,2.576,-0.006,0.013,-0.021
96446,-9.682,-0.168,2.586,-0.006,0.013,-0.021
96549,-9.697,-0.172,2.571,-0.006,0.013,-0.021
96652,-9.68,-0.172,2.576,-0.006,0.013,-0.021
96755,-9.689,-0.168,2.588,-0.006,0.013,-0.021
96858,-9.677,-0.168,2.586,-0.006,0.013,-0.02
96961,-9.685,-0.18,2.581,-0.006,0.013,-0.021
97064,-9.685,-0.177,2.588,-0.006,0.013,-0.02
97167,-9.685,-0.182,2.586,-0.007,0.013,-0.02
97270,-9.687,-0.165,2.579,-0.006,0.013,-0.02
97373,-9.68,-0.172,2.581,-0.006,0.013,-0.021
97476,-9.692,-0.168,2.579,-0.006,0.013,-0.021
97579,-9.687,-0.168,2.583,-0.007,0.013,-0.02
97682,-9.682,-0.172,2.576,-0.006,0.013,-0.021
97785,-9.704,-0.17,2.583,-0.006,0.013,-0.021
97888,-9.687,-0.175,2.586,-0.007,0.013,-0.02
97991,-9.685,-0.187,2.588,-0.006,0.013,-0.021
98094,-9.689,-0.168,2.588,-0.006,0.013,-0.021
98197,-9.68,-0.165,2.579,-0.006,0.013,-0.021
98300,-9.682,-0.172,2.588,-0.006,0.013,-0.021
98403,-9.687,-0.168,2.581,-0.006,0.013,-0.02
98506,-9.685,-0.177,2.588,-0.006,0.013,-0.021
98609,-9.692,-0.168,2.581,-0.006,0.013,-0.021
98712,-9.697,-0.172,2.576,-0.006,0.013,-0.02
98815,-9.697,-0.172,2.588,-0.006,0.012,-0.021
98918,-9.694,-0.177,2.591,-0.006,0.012,-0.02
99021,-9.689,-0.175,2.571,-0.006,0.013,-0.021
99124,-9.689,-0.17,2.576,-0.006,0.013,-0.021
99227,-9.699,-0.17,2.586,-0.006,0.013,-0.021
99330,-9.692,-0.172,2.591,-0.006,0.013,-0.021
99433,-9.692,-0.165,2.588,-0.006,0.013,-0.021
99536,-9.687,-0.172,2.591,-0.006,0.013,-0.02
99639,-9.682,-0.168,2.586,-0.006,0.013,-0.021
99742,-9.692,-0.17,2.591,-0.006,0.012,-0.021
99845,-9.687,-0.175,2.588,-0.006,0.013,-0.021
99948,-9.694,-0.18,2.591,-0.006,0.012,-0.02
100051,-9.687,-0.177,2.593,-0.007,0.013,-0.021
100154,-9.687,-0.177,2.586,-0.006,0.013,-0.02
100257,-9.697,-0.172,2.588,-0.006,0.013,-0.021
100360,-9.685,-0.17,2.586,-0.006,0.013,-0.02
100463,-9.689,-0.165,2.591,-0.006,0.013,-0.021
100566,-9.687,-0.172,2.595,-0.006,0.012,-0.021
100669,-9.689,-0.175,2.583,-0.006,0.013,-0.021
100772,-9.685,-0.175,2.593,-0.006,0.013,-0.021
100875,-9.687,-0.18,2.591,-0.006,0.013,-0.021
100978,-9.689,-0.172,2.581,-0.007,0.013,-0.02
101081,-9.699,-0.172,2.579,-0.007,0.013,-0.021
101184,-9.701,-0.172,2.579,-0.006,0.013,-0.021
101287,-9.685,-0.168,2.576,-0.006,0.013,-0.021
101390,-9.694,-0.168,2.571,-0.006,0.012,-0.021
101493,-9.682,-0.172,2.593,-0.006,0.013,-0.021
101596,-9.685,-0.175,2.586,-0.006,0.013,-0.021
101699,-9.687,-0.168,2.571,-0.006,0.013,-0.021
101802,-9.685,-0.165,2.576,-0.006,0.013,-0.021
101905,-9.689,-0.175,2.583,-0.006,0.013,-0.021
102008,-9.687,-0.172,2.588,-0.006,0.013,-0.02
102111,-9.687,-0.17,2.576,-0.006,0.013,-0.02
102214,-9.685,-0.17,2.591,-0.006,0.013,-0.021
102317,-9.692,-0.168,2.588,-0.006,0.013,-0.021
102420,-9.694,-0.177,2.576,-0.006,0.013,-0.021
102523,-9.685,-0.177,2.574,-0.006,0.013,-0.021
102626,-9.692,-0.165,2.591,-0.006,0.012,-0.021
102729,-9.694,-0.175,2.581,-0.006,0.012,-0.02
102832,-9.687,-0.177,2.591,-0.007,0.013,-0.021
102935,-9.682,-0.17,2.579,-0.006,0.013,-0.021
103038,-9.687,-0.168,2.583,-0.006,0.013,-0.021
103141,-9.697,-0.18,2.588,-0.006,0.013,-0.021
103244,-9.692,-0.18,2.591,-0.006,0.013,-0.021
103347,-9.687,-0.172,2.595,-0.006,0.012,-0.021
103450,-9.682,-0.18,2.588,-0.007,0.013,-0.021
103553,-9.687,-0.168,2.579,-0.006,0.013,-0.02
103656,-9.692,-0.168,2.574,-0.006,0.013,-0.021
103759,-9.692,-0.172,2.564,-0.006,0.013,-0.021
103862,-9.687,-0.168,2.579,-0.006,0.013,-0.021
103965,-9.692,-0.172,2.586,-0.006,0.013,-0.021
104068,-9.701,-0.175,2.588,-0.006,0.013,-0.021
104171,-9.687,-0.177,2.588,-0.006,0.013,-0.021
104274,-9.697,-0.172,2.588,-0.006,0.012,-0.021
104377,-9.68,-0.172,2.591,-0.007,0.013,-0.021
104480,-9.68,-0.17,2.576,-0.006,0.012,-0.02
104583,-9.692,-0.163,2.595,-0.006,0.013,-0.021
104686,-9.675,-0.172,2.588,-0.006,0.012,-0.021
104789,-9.682,-0.175,2.595,-0.006,0.012,-0.021
104892,-9.687,-0.18,2.576,-0.006,0.012,-0.02
104995,-9.687,-0.17,2.586,-0.006,0.012,-0.021
105098,-9.692,-0.17,2.583,-0.006,0.012,-0.021
105201,-9.68,-0.172,2.583,-0.006,0.012,-0.02
105304,-9.687,-0.172,2.576,-0.006,0.012,-0.02
105407,-9.694,-0.18,2.576,-0.006,0.012,-0.021
105510,-9.692,-0.17,2.581,-0.006,0.013,-0.021
105613,-9.687,-0.17,2.574,-0.006,0.012,-0.021
105716,-9.675,-0.177,2.588,-0.006,0.012,-0.02
105819,-9.692,-0.177,2.579,-0.006,0.013,-0.021
105922,-9.699,-0.165,2.593,-0.006,0.013,-0.021
106025,-9.694,-0.172,2.583,-0.006,0.013,-0.02
106128,-9.689,-0.17,2.593,-0.006,0.013,-0.02
106231,-9.689,-0.177,2.576,-0.006,0.013,-0.02
106334,-9.687,-0.165,2.581,-0.006,0.013,-0.02
106437,-9.687,-0.163,2.595,-0.006,0.013,-0.021
106540,-9.689,-0.177,2.581,-0.006,0.013,-0.02
106643,-9.685,-0.175,2.598,-0.006,0.012,-0.021
106746,-9.687,-0.172,2.595,-0.007,0.013,-0.021
106849,-9.689,-0.163,2.586,-0.006,0.013,-0.021
106952,-9.673,-0.177,2.581,-0.006,0.013,-0.021
107055,-9.682,-0.175,2.579,-0.006,0.013,-0.021
107158,-9.692,-0.177,2.579,-0.006,0.013,-0.021
107261,-9.687,-0.175,2.593,-0.006,0.012,-0.02
107364,-9.685,-0.168,2.586,-0.007,0.013,-0.021
107467,-9.694,-0.175,2.574,-0.006,0.013,-0.021
107570,-9.692,-0.175,2.588,-0.006,0.012,-0.021
107673,-9.687,-0.175,2.583,-0.007,0.013,-0.021
107776,-9.687,-0.182,2.579,-0.006,0.012,-0.021
107879,-9.682,-0.175,2.579,-0.006,0.013,-0.02
107982,-9.687,-0.172,2.571,-0.006,0.013,-0.021
108085,-9.694,-0.175,2.579,-0.006,0.013,-0.021
108188,-9.689,-0.172,2.574,-0.006,0.012,-0.021
108291,-9.682,-0.168,2.571,-0.006,0.013,-0.021
108394,-9.692,-0.168,2.574,-0.006,0.013,-0.021
108497,-9.687,-0.165,2.598,-0.006,0.013,-0.021
108600,-9.689,-0.18,2.579,-0.006,0.013,-0.021
108703,-9.692,-0.177,2.591,-0.006,0.013,-0.021
108806,-9.685,-0.175,2.583,-0.006,0.013,-0.021
108909,-9.675,-0.165,2.583,-0.006,0.013,-0.021
109012,-9.692,-0.168,2.586,-0.006,0.013,-0.021
109115,-9.694,-0.17,2.581,-0.006,0.013,-0.021
109218,-9.685,-0.18,2.571,-0.006,0.013,-0.021
109321,-9.689,-0.17,2.583,-0.006,0.013,-0.021
109424,-9.685,-0.175,2.607,-0.006,0.013,-0.021
109527,-9.689,-0.175,2.595,-0.006,0.013,-0.02
109630,-9.685,-0.17,2.598,-0.006,0.013,-0.021
109733,-9.689,-0.168,2.579,-0.006,0.013,-0.021
109836,-9.687,-0.177,2.581,-0.006,0.013,-0.021
109939,-9.685,-0.17,2.583,-0.006,0.013,-0.02
110042,-9.692,-0.172,2.595,-0.006,0.013,-0.021
110145,-9.685,-0.17,2.588,-0.006,0.013,-0.021
110248,-9.689,-0.168,2.581,-0.006,0.013,-0.021
110351,-9.689,-0.17,2.583,-0.006,0.013,-0.021
110454,-9.687,-0.17,2.588,-0.006,0.013,-0.021
110557,-9.689,-0.17,2.586,-0.006,0.013,-0.021
110660,-9.689,-0.17,2.586,-0.006,0.013,-0.021
110763,-9.687,-0.175,2.593,-0.006,0.013,-0.021
110866,-9.697,-0.175,2.595,-0.006,0.013,-0.021
110969,-9.675,-0.17,2.593,-0.006,0.012,-0.021
111072,-9.68,-0.168,2.571,-0.006,0.012,-0.02
111175,-9.694,-0.18,2.602,-0.006,0.012,-0.02
111278,-9.687,-0.17,2.579,-0.006,0.013,-0.02
111381,-9.694,-0.172,2.583,-0.006,0.012,-0.021
111484,-9.692,-0.17,2.591,-0.006,0.013,-0.02
111587,-9.692,-0.175,2.595,-0.006,0.012,-0.021
111690,-9.687,-0.17,2.579,-0.006,0.013,-0.02
111793,-9.682,-0.163,2.581,-0.006,0.013,-0.021
111896,-9.687,-0.184,2.593,-0.006,0.013,-0.021
111999,-9.689,-0.175,2.581,-0.006,0.013,-0.021
112102,-9.697,-0.163,2.574,-0.006,0.012,-0.021
112205,-9.68,-0.177,2.588,-0.006,0.013,-0.021
112308,-9.685,-0.187,2.583,-0.007,0.013,-0.02
112411,-9.694,-0.172,2.583,-0.007,0.013,-0.02
112514,-9.68,-0.16,2.576,-0.006,0.013,-0.021
112617,-9.682,-0.168,2.579,-0.006,0.013,-0.021
112720,-9.685,-0.175,2.576,-0.006,0.012,-0.021
112823,-9.701,-0.17,2.588,-0.006,0.013,-0.021
112926,-9.687,-0.177,2.574,-0.007,0.013,-0.02
113029,-9.694,-0.177,2.581,-0.006,0.013,-0.021
113132,-9.687,-0.177,2.579,-0.006,0.013,-0.021
113235,-9.682,-0.17,2.581,-0.006,0.013,-0.021
113338,-9.701,-0.168,2.583,-0.006,0.013,-0.021
113441,-9.692,-0.165,2.588,-0.006,0.013,-0.021
113544,-9.685,-0.17,2.588,-0.006,0.013,-0.02
113647,-9.694,-0.172,2.576,-0.006,0.012,-0.021
113750,-9.685,-0.17,2.583,-0.006,0.013,-0.021
113853,-9.682,-0.177,2.579,-0.006,0.013,-0.021
113956,-9.689,-0.175,2.583,-0.006,0.013,-0.021
114059,-9.689,-0.177,2.583,-0.006,0.013,-0.02
114162,-9.692,-0.18,2.586,-0.006,0.013,-0.021
114265,-9.687,-0.18,2.583,-0.006,0.013,-0.021
114368,-9.68,-0.16,2.6,-0.006,0.013,-0.021
114471,-9.692,-0.168,2.598,-0.006,0.013,-0.021
114574,-9.699,-0.168,2.593,-0.006,0.013,-0.021
114677,-9.685,-0.17,2.586,-0.006,0.012,-0.021
114780,-9.697,-0.165,2.576,-0.006,0.012,-0.021
114883,-9.682,-0.18,2.569,-0.006,0.012,-0.02
114986,-9.689,-0.16,2.581,-0.006,0.013,-0.02
115089,-9.685,-0.172,2.567,-0.006,0.013,-0.021
115192,-9.694,-0.177,2.571,-0.007,0.013,-0.021
115295,-9.689,-0.17,2.588,-0.006,0.013,-0.021
115398,-9.694,-0.163,2.574,-0.006,0.013,-0.021
115501,-9.689,-0.17,2.569,-0.006,0.013,-0.02
115604,-9.687,-0.16,2.595,-0.006,0.013,-0.02
115707,-9.68,-0.168,2.576,-0.006,0.013,-0.021
115810,-9.68,-0.172,2.583,-0.007,0.013,-0.021
115913,-9.687,-0.18,2.576,-0.006,0.013,-0.021
116016,-9.687,-0.17,2.586,-0.006,0.013,-0.021
116119,-9.689,-0.17,2.576,-0.006,0.013,-0.021
116222,-9.685,-0.172,2.576,-0.006,0.013,-0.021
116325,-9.682,-0.172,2.583,-0.006,0.013,-0.021
116428,-9.689,-0.17,2.581,-0.007,0.013,-0.021
116531,-9.694,-0.17,2.588,-0.007,0.013,-0.021
116634,-9.692,-0.165,2.581,-0.006,0.013,-0.021
116737,-9.685,-0.165,2.586,-0.006,0.013,-0.021
116840,-9.699,-0.177,2.598,-0.006,0.013,-0.02
116943,-9.682,-0.177,2.591,-0.006,0.013,-0.021
117046,-9.689,-0.165,2.598,-0.006,0.012,-0.021
117149,-9.697,-0.165,2.581,-0.006,0.013,-0.021
117252,-9.687,-0.168,2.593,-0.006,0.013,-0.02
117355,-9.697,-0.177,2.574,-0.007,0.013,-0.021
117458,-9.687,-0.18,2.593,-0.006,0.013,-0.021
117561,-9.692,-0.172,2.586,-0.006,0.013,-0.021
117664,-9.694,-0.172,2.6,-0.007,0.013,-0.021
117767,-9.685,-0.175,2.588,-0.006,0.013,-0.021
117870,-9.685,-0.175,2.567,-0.006,0.012,-0.021
117973,-9.68,-0.17,2.593,-0.006,0.012,-0.021
118076,-9.68,-0.165,2.581,-0.006,0.013,-0.021
118179,-9.692,-0.177,2.583,-0.007,0.013,-0.021
118282,-9.68,-0.17,2.593,-0.006,0.013,-0.021
118385,-9.675,-0.175,2.581,-0.006,0.013,-0.021
118488,-9.687,-0.187,2.588,-0.006,0.013,-0.021
118591,-9.687,-0.165,2.574,-0.006,0.013,-0.021
118694,-9.685,-0.172,2.591,-0.006,0.013,-0.021
118797,-9.692,-0.172,2.567,-0.006,0.013,-0.021
118900,-9.692,-0.168,2.579,-0.006,0.012,-0.021
119003,-9.689,-0.168,2.588,-0.007,0.012,-0.021
119106,-9.689,-0.177,2.579,-0.006,0.013,-0.021
119209,-9.692,-0.175,2.569,-0.006,0.013,-0.02
119312,-9.699,-0.17,2.588,-0.006,0.013,-0.021
119415,-9.687,-0.165,2.593,-0.006,0.013,-0.021
119518,-9.687,-0.172,2.588,-0.006,0.013,-0.021
119621,-9.687,-0.18,2.583,-0.006,0.013,-0.021
119724,-9.694,-0.177,2.569,-0.006,0.013,-0.021
119827,-9.689,-0.172,2.574,-0.006,0.012,-0.021
119930,-9.687,-0.165,2.588,-0.006,0.012,-0.02
120033,-9.689,-0.175,2.586,-0.006,0.013,-0.021
120136,-9.692,-0.17,2.591,-0.006,0.013,-0.021
120239,-9.699,-0.163,2.591,-0.006,0.013,-0.021
120342,-9.689,-0.172,2.569,-0.006,0.013,-0.021
120445,-9.697,-0.172,2.581,-0.006,0.013,-0.021
120548,-9.704,-0.17,2.593,-0.006,0.013,-0.021
120651,-9.685,-0.172,2.583,-0.006,0.013,-0.021
120754,-9.697,-0.168,2.591,-0.007,0.013,-0.021
120857,-9.687,-0.16,2.579,-0.006,0.013,-0.02
120960,-9.692,-0.172,2.579,-0.006,0.013,-0.021
121063,-9.682,-0.165,2.593,-0.007,0.012,-0.02
121166,-9.687,-0.168,2.595,-0.006,0.013,-0.021
121269,-9.685,-0.175,2.583,-0.006,0.013,-0.021
121372,-9.682,-0.187,2.567,-0.006,0.013,-0.021
121475,-9.685,-0.168,2.583,-0.006,0.013,-0.021
121578,-9.689,-0.17,2.591,-0.006,0.012,-0.021
121681,-9.689,-0.175,2.588,-0.006,0.012,-0.021
121784,-9.682,-0.17,2.574,-0.006,0.012,-0.021
121887,-9.689,-0.168,2.574,-0.006,0.013,-0.021
121990,-9.697,-0.165,2.593,-0.006,0.013,-0.021
122093,-9.682,-0.172,2.586,-0.006,0.013,-0.021
122196,-9.687,-0.175,2.579,-0.006,0.013,-0.02
122299,-9.673,-0.172,2.593,-0.006,0.012,-0.02
122402,-9.699,-0.177,2.602,-0.006,0.012,-0.021
122505,-9.699,-0.172,2.593,-0.006,0.013,-0.021
122608,-9.692,-0.165,2.588,-0.006,0.012,-0.021
122711,-9.699,-0.189,2.588,-0.006,0.013,-0.021
122814,-9.685,-0.175,2.586,-0.006,0.013,-0.021
122917,-9.692,-0.165,2.583,-0.006,0.013,-0.021
123020,-9.692,-0.172,2.583,-0.007,0.013,-0.021
123123,-9.692,-0.168,2.579,-0.007,0.013,-0.021
123226,-9.68,-0.165,2.598,-0.006,0.013,-0.021
123329,-9.689,-0.177,2.588,-0.006,0.013,-0.02
123432,-9.682,-0.184,2.571,-0.006,0.013,-0.021
123535,-9.697,-0.175,2.581,-0.006,0.013,-0.02
123638,-9.692,-0.172,2.583,-0.006,0.013,-0.02
123741,-9.68,-0.175,2.591,-0.006,0.013,-0.02
123844,-9.692,-0.172,2.591,-0.006,0.013,-0.021
123947,-9.694,-0.165,2.583,-0.006,0.013,-0.021
124050,-9.689,-0.175,2.574,-0.006,0.013,-0.02
124153,-9.685,-0.175,2.576,-0.006,0.013,-0.021
124256,-9.689,-0.17,2.571,-0.006,0.013,-0.021
124359,-9.697,-0.175,2.576,-0.007,0.013,-0.021
124462,-9.689,-0.177,2.595,-0.006,0.013,-0.021
124565,-9.685,-0.175,2.583,-0.006,0.013,-0.021
124668,-9.692,-0.18,2.581,-0.006,0.013,-0.021
124771,-9.687,-0.177,2.574,-0.006,0.013,-0.02
124874,-9.699,-0.165,2.598,-0.006,0.013,-0.021
124977,-9.692,-0.168,2.593,-0.006,0.012,-0.02
125080,-9.689,-0.17,2.598,-0.006,0.013,-0.021
125183,-9.68,-0.168,2.591,-0.006,0.013,-0.021
125286,-9.692,-0.175,2.569,-0.006,0.013,-0.021
125389,-9.682,-0.17,2.591,-0.006,0.013,-0.02
125492,-9.694,-0.172,2.564,-0.006,0.013,-0.021
125595,-9.701,-0.17,2.574,-0.006,0.013,-0.021
125698,-9.687,-0.172,2.591,-0.006,0.013,-0.021
125801,-9.682,-0.18,2.588,-0.006,0.012,-0.021
125904,-9.692,-0.168,2.591,-0.006,0.013,-0.021
126007,-9.692,-0.172,2.583,-0.007,0.013,-0.021
126110,-9.694,-0.163,2.574,-0.006,0.013,-0.02
126213,-9.699,-0.175,2.579,-0.006,0.013,-0.021
126316,-9.685,-0.168,2.583,-0.006,0.013,-0.021
126419,-9.685,-0.165,2.581,-0.006,0.012,-0.021
126522,-9.689,-0.172,2.591,-0.006,0.013,-0.021
126625,-9.694,-0.175,2.591,-0.006,0.012,-0.021
126728,-9.682,-0.182,2.581,-0.006,0.013,-0.021
126831,-9.689,-0.175,2.576,-0.006,0.013,-0.021
126934,-9.687,-0.163,2.588,-0.006,0.013,-0.02
127037,-9.697,-0.175,2.593,-0.006,0.013,-0.021
127140,-9.682,-0.172,2.581,-0.006,0.013,-0.021
127243,-9.699,-0.18,2.579,-0.006,0.012,-0.02
127346,-9.687,-0.16,2.583,-0.006,0.013,-0.021
127449,-9.685,-0.17,2.591,-0.006,0.013,-0.021
127552,-9.685,-0.165,2.583,-0.006,0.013,-0.021
127655,-9.677,-0.175,2.602,-0.006,0.013,-0.021
127758,-9.687,-0.172,2.593,-0.006,0.013,-0.021
127861,-9.682,-0.175,2.591,-0.007,0.013,-0.021
127964,-9.697,-0.17,2.583,-0.006,0.013,-0.021
128067,-9.687,-0.168,2.595,-0.006,0.012,-0.021
128170,-9.682,-0.172,2.607,-0.006,0.013,-0.021
128273,-9.692,-0.168,2.591,-0.006,0.012,-0.02
128376,-9.692,-0.177,2.581,-0.007,0.012,-0.02
128479,-9.682,-0.182,2.581,-0.007,0.012,-0.021
128582,-9.685,-0.168,2.576,-0.006,0.013,-0.021
128685,-9.685,-0.172,2.581,-0.006,0.012,-0.021
128788,-9.694,-0.172,2.581,-0.006,0.013,-0.02
128891,-9.694,-0.175,2.583,-0.006,0.013,-0.02
128994,-9.692,-0.17,2.586,-0.006,0.012,-0.021
129097,-9.687,-0.175,2.593,-0.006,0.012,-0.02
129200,-9.68,-0.177,2.588,-0.006,0.013,-0.021
129303,-9.687,-0.177,2.586,-0.006,0.013,-0.021
129406,-9.689,-0.18,2.571,-0.007,0.013,-0.021
129509,-9.689,-0.172,2.593,-0.006,0.013,-0.02
129612,-9.682,-0.175,2.583,-0.006,0.013,-0.021
129715,-9.685,-0.177,2.576,-0.006,0.012,-0.021
129818,-9.687,-0.17,2.598,-0.006,0.013,-0.021
129921,-9.689,-0.172,2.586,-0.006,0.012,-0.021
130024,-9.685,-0.172,2.588,-0.006,0.013,-0.021
130127,-9.692,-0.168,2.574,-0.006,0.013,-0.021
130230,-9.704,-0.172,2.567,-0.006,0.013,-0.021
130333,-9.682,-0.18,2.586,-0.007,0.013,-0.021
130436,-9.687,-0.168,2.569,-0.006,0.012,-0.021
130539,-9.685,-0.175,2.595,-0.006,0.013,-0.021
130642,-9.682,-0.177,2.583,-0.006,0.013,-0.021
130745,-9.692,-0.182,2.586,-0.006,0.013,-0.021
130848,-9.699,-0.17,2.588,-0.007,0.013,-0.021
130951,-9.689,-0.163,2.583,-0.006,0.013,-0.021
131054,-9.689,-0.168,2.595,-0.006,0.013,-0.021
131157,-9.689,-0.184,2.583,-0.006,0.013,-0.02
131260,-9.687,-0.17,2.569,-0.006,0.013,-0.021
131363,-9.687,-0.172,2.591,-0.006,0.013,-0.021
131466,-9.692,-0.18,2.576,-0.007,0.013,-0.021
131569,-9.689,-0.156,2.593,-0.006,0.012,-0.021
131672,-9.694,-0.17,2.6,-0.006,0.013,-0.021
131775,-9.685,-0.177,2.591,-0.006,0.012,-0.02
131878,-9.685,-0.177,2.602,-0.006,0.012,-0.021
131981,-9.687,-0.177,2.588,-0.006,0.013,-0.021
132084,-9.685,-0.163,2.571,-0.006,0.013,-0.021
132187,-9.694,-0.182,2.591,-0.006,0.012,-0.021
132290,-9.704,-0.172,2.586,-0.006,0.013,-0.02
132393,-9.687,-0.168,2.588,-0.006,0.013,-0.02
132496,-9.692,-0.17,2.576,-0.006,0.013,-0.02
132599,-9.689,-0.17,2.581,-0.006,0.013,-0.021
132702,-9.687,-0.17,2.593,-0.006,0.013,-0.021
132805,-9.689,-0.172,2.593,-0.007,0.012,-0.02
132908,-9.68,-0.18,2.591,-0.006,0.013,-0.02
133011,-9.692,-0.177,2.574,-0.007,0.013,-0.021
133114,-9.689,-0.168,2.581,-0.006,0.012,-0.021
133217,-9.687,-0.16,2.591,-0.006,0.013,-0.021
133320,-9.685,-0.17,2.586,-0.007,0.013,-0.021
133423,-9.687,-0.184,2.598,-0.006,0.013,-0.02
133526,-9.685,-0.177,2.581,-0.007,0.013,-0.021
133629,-9.685,-0.175,2.591,-0.006,0.013,-0.021
133732,-9.689,-0.17,2.591,-0.006,0.013,-0.021
133835,-9.697,-0.175,2.591,-0.006,0.013,-0.021
133938,-9.692,-0.168,2.574,-0.006,0.013,-0.02
134041,-9.685,-0.175,2.586,-0.006,0.013,-0.021
134144,-9.692,-0.17,2.593,-0.006,0.013,-0.021
134247,-9.68,-0.182,2.579,-0.006,0.013,-0.021
134350,-9.687,-0.172,2.586,-0.006,0.013,-0.021
134453,-9.682,-0.175,2.602,-0.006,0.013,-0.02
134556,-9.682,-0.18,2.569,-0.006,0.013,-0.021
134659,-9.697,-0.172,2.593,-0.006,0.013,-0.02
134762,-9.685,-0.177,2.579,-0.006,0.013,-0.021
134865,-9.689,-0.168,2.579,-0.006,0.013,-0.021
134968,-9.687,-0.165,2.586,-0.006,0.013,-0.021
135071,-9.692,-0.177,2.569,-0.006,0.012,-0.021
135174,-9.697,-0.175,2.586,-0.006,0.013,-0.021
135277,-9.685,-0.172,2.588,-0.006,0.013,-0.021
135380,-9.685,-0.168,2.61,-0.006,0.013,-0.021
135483,-9.682,-0.172,2.6,-0.006,0.012,-0.021
135586,-9.692,-0.182,2.576,-0.006,0.013,-0.021
135689,-9.685,-0.172,2.569,-0.006,0.013,-0.021
135792,-9.692,-0.17,2.581,-0.006,0.013,-0.021
135895,-9.689,-0.17,2.581,-0.006,0.013,-0.021
135998,-9.682,-0.172,2.591,-0.006,0.013,-0.021
136101,-9.687,-0.172,2.586,-0.006,0.012,-0.021
136204,-9.689,-0.175,2.591,-0.006,0.013,-0.021
136307,-9.687,-0.182,2.583,-0.006,0.012,-0.021
136410,-9.675,-0.165,2.586,-0.006,0.013,-0.02
136513,-9.68,-0.175,2.583,-0.007,0.013,-0.021
136616,-9.68,-0.172,2.583,-0.006,0.012,-0.021
136719,-9.694,-0.165,2.586,-0.006,0.012,-0.02
136822,-9.68,-0.182,2.591,-0.006,0.013,-0.021
136925,-9.682,-0.177,2.593,-0.006,0.012,-0.021
137028,-9.689,-0.172,2.576,-0.006,0.013,-0.021
137131,-9.694,-0.172,2.588,-0.006,0.013,-0.021
137234,-9.682,-0.182,2.581,-0.006,0.012,-0.021
137337,-9.689,-0.18,2.581,-0.006,0.012,-0.02
137440,-9.687,-0.165,2.583,-0.006,0.013,-0.021
137543,-9.685,-0.177,2.586,-0.006,0.012,-0.02
137646,-9.685,-0.168,2.591,-0.006,0.013,-0.021
137749,-9.685,-0.172,2.583,-0.006,0.012,-0.021
137852,-9.685,-0.168,2.588,-0.006,0.013,-0.021
137955,-9.685,-0.165,2.593,-0.006,0.013,-0.021
138058,-9.685,-0.175,2.598,-0.006,0.013,-0.021
138161,-9.689,-0.18,2.605,-0.007,0.012,-0.021
138264,-9.687,-0.17,2.583,-0.006,0.013,-0.021
138367,-9.687,-0.177,2.586,-0.006,0.013,-0.021
138470,-9.689,-0.177,2.581,-0.006,0.013,-0.02
138573,-9.682,-0.17,2.6,-0.006,0.013,-0.02
138676,-9.692,-0.175,2.583,-0.006,0.013,-0.021
138779,-9.682,-0.175,2.593,-0.006,0.013,-0.02
138882,-9.699,-0.168,2.591,-0.006,0.013,-0.021
138985,-9.689,-0.165,2.576,-0.006,0.012,-0.021
139088,-9.682,-0.175,2.576,-0.006,0.013,-0.021
139191,-9.694,-0.18,2.576,-0.006,0.013,-0.021
139294,-9.685,-0.177,2.571,-0.006,0.013,-0.021
139397,-9.689,-0.17,2.593,-0.006,0.013,-0.021
139500,-9.689,-0.175,2.586,-0.006,0.013,-0.021
139603,-9.687,-0.168,2.574,-0.006,0.013,-0.02
139706,-9.685,-0.184,2.576,-0.006,0.013,-0.02
139809,-9.685,-0.163,2.586,-0.006,0.013,-0.021
139912,-9.687,-0.158,2.581,-0.006,0.012,-0.021
140015,-9.692,-0.177,2.593,-0.006,0.012,-0.021
140118,-9.694,-0.177,2.576,-0.006,0.013,-0.021
140221,-9.687,-0.177,2.586,-0.006,0.013,-0.02
140324,-9.685,-0.177,2.586,-0.006,0.013,-0.021
140427,-9.692,-0.175,2.586,-0.006,0.013,-0.021
140530,-9.689,-0.163,2.591,-0.006,0.013,-0.021
140633,-9.677,-0.18,2.574,-0.006,0.013,-0.021
140736,-9.689,-0.168,2.581,-0.006,0.012,-0.021
140839,-9.689,-0.175,2.576,-0.006,0.012,-0.021
140942,-9.689,-0.172,2.583,-0.006,0.013,-0.021
141045,-9.682,-0.17,2.583,-0.006,0.013,-0.02
141148,-9.694,-0.168,2.574,-0.006,0.013,-0.021
141251,-9.685,-0.17,2.579,-0.006,0.013,-0.021
141354,-9.682,-0.165,2.586,-0.006,0.013,-0.02
141457,-9.699,-0.175,2.581,-0.006,0.012,-0.021
141560,-9.687,-0.175,2.593,-0.007,0.013,-0.02
141663,-9.694,-0.177,2.579,-0.006,0.012,-0.021
141766,-9.682,-0.177,2.588,-0.006,0.013,-0.021
141869,-9.685,-0.17,2.574,-0.006,0.012,-0.021
141972,-9.692,-0.168,2.579,-0.006,0.013,-0.021
142075,-9.692,-0.18,2.579,-0.007,0.012,-0.021
142178,-9.68,-0.172,2.574,-0.006,0.013,-0.021
142281,-9.687,-0.17,2.595,-0.006,0.013,-0.021
142384,-9.694,-0.172,2.591,-0.006,0.012,-0.021
142487,-9.68,-0.18,2.574,-0.006,0.013,-0.021
142590,-9.687,-0.184,2.591,-0.006,0.013,-0.02
142693,-9.685,-0.18,2.588,-0.006,0.013,-0.021
142796,-9.694,-0.17,2.593,-0.006,0.012,-0.021
142899,-9.687,-0.17,2.579,-0.007,0.012,-0.021
143002,-9.692,-0.17,2.598,-0.006,0.013,-0.021
143105,-9.689,-0.177,2.583,-0.006,0.012,-0.021
143208,-9.682,-0.184,2.574,-0.006,0.013,-0.02
143311,-9.687,-0.165,2.595,-0.006,0.013,-0.021
143414,-9.694,-0.175,2.581,-0.007,0.013,-0.021
143517,-9.697,-0.163,2.593,-0.006,0.012,-0.021
143620,-9.692,-0.172,2.574,-0.006,0.013,-0.021
143723,-9.689,-0.168,2.6,-0.007,0.013,-0.021
143826,-9.697,-0.18,2.588,-0.006,0.013,-0.021
143929,-9.697,-0.172,2.586,-0.006,0.013,-0.021
144032,-9.689,-0.18,2.586,-0.006,0.012,-0.021
144135,-9.682,-0.175,2.581,-0.006,0.013,-0.021
144238,-9.689,-0.175,2.591,-0.007,0.012,-0.021
144341,-9.692,-0.163,2.588,-0.006,0.012,-0.02
144444,-9.687,-0.177,2.583,-0.006,0.013,-0.021
144547,-9.687,-0.18,2.591,-0.006,0.013,-0.021
144650,-9.689,-0.172,2.593,-0.006,0.013,-0.021
144753,-9.694,-0.168,2.605,-0.006,0.013,-0.021
144856,-9.694,-0.168,2.593,-0.007,0.012,-0.02
144959,-9.677,-0.172,2.581,-0.006,0.013,-0.021
145062,-9.682,-0.172,2.586,-0.006,0.012,-0.021
145165,-9.692,-0.175,2.559,-0.006,0.013,-0.021
145268,-9.685,-0.172,2.581,-0.006,0.013,-0.021
145371,-9.689,-0.177,2.586,-0.006,0.013,-0.021
145474,-9.689,-0.177,2.576,-0.006,0.013,-0.021
145577,-9.68,-0.168,2.586,-0.006,0.013,-0.021
145680,-9.689,-0.189,2.586,-0.006,0.012,-0.021
145783,-9.677,-0.17,2.579,-0.006,0.013,-0.021
145886,-9.692,-0.172,2.579,-0.006,0.013,-0.021
145989,-9.692,-0.177,2.595,-0.006,0.012,-0.021
146092,-9.685,-0.17,2.579,-0.006,0.013,-0.021
146195,-9.685,-0.17,2.581,-0.007,0.012,-0.021
146298,-9.694,-0.177,2.591,-0.006,0.013,-0.02
146401,-9.697,-0.17,2.576,-0.006,0.013,-0.021
146504,-9.694,-0.18,2.581,-0.006,0.012,-0.021
146607,-9.694,-0.175,2.598,-0.006,0.012,-0.02
146710,-9.687,-0.172,2.576,-0.006,0.013,-0.021
146813,-9.699,-0.17,2.588,-0.006,0.013,-0.021
146916,-9.677,-0.168,2.588,-0.006,0.012,-0.02
147019,-9.689,-0.17,2.588,-0.006,0.013,-0.021
147122,-9.68,-0.168,2.586,-0.006,0.013,-0.021
147225,-9.694,-0.17,2.593,-0.006,0.013,-0.02
147328,-9.692,-0.17,2.583,-0.006,0.013,-0.021
147431,-9.682,-0.175,2.598,-0.006,0.013,-0.021
147534,-9.697,-0.17,2.598,-0.006,0.013,-0.021
147637,-9.694,-0.175,2.581,-0.006,0.013,-0.021
147740,-9.692,-0.17,2.583,-0.006,0.013,-0.021
147843,-9.685,-0.184,2.593,-0.006,0.013,-0.021
147946,-9.687,-0.175,2.579,-0.007,0.012,-0.021
148049,-9.685,-0.172,2.593,-0.006,0.012,-0.02
148152,-9.685,-0.175,2.579,-0.006,0.013,-0.021
148255,-9.689,-0.175,2.583,-0.006,0.013,-0.02
148358,-9.68,-0.165,2.583,-0.006,0.012,-0.02
148461,-9.689,-0.175,2.574,-0.006,0.013,-0.021
148564,-9.692,-0.17,2.583,-0.006,0.013,-0.021
148667,-9.692,-0.17,2.564,-0.006,0.013,-0.021
148770,-9.689,-0.168,2.586,-0.006,0.013,-0.021
148873,-9.689,-0.172,2.579,-0.006,0.013,-0.021
148976,-9.692,-0.165,2.581,-0.006,0.013,-0.021
149079,-9.689,-0.165,2.583,-0.006,0.013,-0.021
149182,-9.689,-0.168,2.576,-0.006,0.013,-0.02
149285,-9.677,-0.17,2.569,-0.006,0.013,-0.021
149388,-9.699,-0.17,2.593,-0.007,0.013,-0.021
149491,-9.699,-0.165,2.593,-0.007,0.012,-0.021
149594,-9.689,-0.17,2.574,-0.006,0.012,-0.021
149697,-9.692,-0.18,2.583,-0.006,0.013,-0.021
149800,-9.689,-0.172,2.591,-0.007,0.013,-0.021
149903,-9.689,-0.182,2.6,-0.007,0.013,-0.021
150006,-9.692,-0.17,2.583,-0.006,0.013,-0.02
150109,-9.692,-0.168,2.581,-0.006,0.012,-0.021
150212,-9.692,-0.175,2.574,-0.006,0.013,-0.021
150315,-9.682,-0.165,2.574,-0.007,0.012,-0.021
150418,-9.687,-0.168,2.583,-0.006,0.013,-0.021
150521,-9.677,-0.184,2.583,-0.006,0.013,-0.021
150624,-9.685,-0.175,2.581,-0.006,0.013,-0.021
150727,-9.689,-0.175,2.571,-0.006,0.012,-0.02
150830,-9.685,-0.175,2.581,-0.006,0.013,-0.021
150933,-9.689,-0.182,2.593,-0.006,0.013,-0.021
151036,-9.694,-0.175,2.598,-0.006,0.012,-0.021
151139,-9.685,-0.184,2.579,-0.006,0.013,-0.021
151242,-9.697,-0.175,2.586,-0.006,0.013,-0.021
151345,-9.694,-0.182,2.583,-0.006,0.012,-0.021
151448,-9.685,-0.165,2.579,-0.006,0.012,-0.02
151551,-9.692,-0.17,2.6,-0.006,0.013,-0.02
151654,-9.687,-0.172,2.581,-0.006,0.013,-0.021
151757,-9.689,-0.177,2.588,-0.006,0.013,-0.021
151860,-9.689,-0.168,2.581,-0.006,0.013,-0.021
151963,-9.687,-0.172,2.574,-0.007,0.012,-0.021
152066,-9.689,-0.175,2.591,-0.007,0.013,-0.021
152169,-9.692,-0.17,2.579,-0.006,0.013,-0.021
152272,-9.689,-0.175,2.593,-0.006,0.013,-0.021
152375,-9.689,-0.168,2.583,-0.006,0.013,-0.021
152478,-9.682,-0.17,2.593,-0.006,0.013,-0.021
152581,-9.685,-0.17,2.595,-0.006,0.013,-0.021
152684,-9.687,-0.182,2.591,-0.006,0.013,-0.021
152787,-9.687,-0.182,2.576,-0.006,0.013,-0.021
152890,-9.687,-0.168,2.583,-0.006,0.013,-0.021
152993,-9.689,-0.168,2.576,-0.006,0.013,-0.021
153096,-9.687,-0.163,2.583,-0.006,0.013,-0.02
153199,-9.692,-0.165,2.576,-0.006,0.013,-0.021
153302,-9.689,-0.165,2.586,-0.006,0.013,-0.021
153405,-9.692,-0.165,2.574,-0.006,0.013,-0.021
153508,-9.692,-0.168,2.586,-0.006,0.013,-0.021
153611,-9.685,-0.182,2.581,-0.006,0.013,-0.021
153714,-9.687,-0.168,2.574,-0.006,0.013,-0.021
153817,-9.692,-0.165,2.595,-0.006,0.013,-0.021
153920,-9.687,-0.163,2.588,-0.006,0.013,-0.021
154023,-9.675,-0.175,2.581,-0.006,0.012,-0.021
154126,-9.687,-0.175,2.583,-0.006,0.012,-0.021
154229,-9.682,-0.177,2.579,-0.006,0.013,-0.021
154332,-9.692,-0.18,2.576,-0.006,0.013,-0.021
154435,-9.687,-0.18,2.583,-0.006,0.013,-0.021
154538,-9.689,-0.163,2.586,-0.006,0.013,-0.021
154641,-9.692,-0.17,2.576,-0.006,0.013,-0.021
154744,-9.697,-0.177,2.581,-0.006,0.013,-0.02
154847,-9.677,-0.163,2.583,-0.006,0.013,-0.021
154950,-9.68,-0.168,2.598,-0.006,0.013,-0.021
155053,-9.697,-0.184,2.588,-0.006,0.013,-0.021
155156,-9.682,-0.17,2.581,-0.006,0.013,-0.021
155259,-9.677,-0.168,2.591,-0.006,0.013,-0.021
155362,-9.692,-0.168,2.591,-0.006,0.013,-0.021
155465,-9.692,-0.18,2.579,-0.007,0.012,-0.021
155568,-9.697,-0.175,2.586,-0.006,0.012,-0.02
155671,-9.694,-0.18,2.588,-0.006,0.013,-0.021
155774,-9.685,-0.17,2.588,-0.006,0.013,-0.021
155877,-9.689,-0.165,2.569,-0.005,0.013,-0.021
155980,-9.687,-0.172,2.581,-0.006,0.012,-0.021
156083,-9.694,-0.165,2.579,-0.006,0.013,-0.021
156186,-9.697,-0.18,2.588,-0.007,0.013,-0.021
156289,-9.697,-0.17,2.591,-0.006,0.013,-0.021
156392,-9.687,-0.175,2.598,-0.007,0.013,-0.021
156495,-9.697,-0.16,2.576,-0.006,0.013,-0.02
156598,-9.689,-0.17,2.583,-0.006,0.013,-0.021
156701,-9.692,-0.163,2.581,-0.006,0.013,-0.021
156804,-9.685,-0.172,2.586,-0.006,0.013,-0.021
156907,-9.68,-0.172,2.583,-0.006,0.013,-0.021
157010,-9.677,-0.168,2.574,-0.006,0.012,-0.02
157113,-9.697,-0.168,2.586,-0.006,0.013,-0.021
157216,-9.687,-0.17,2.583,-0.006,0.013,-0.021
157319,-9.689,-0.175,2.571,-0.007,0.013,-0.021
157422,-9.685,-0.168,2.593,-0.006,0.012,-0.021
157525,-9.694,-0.172,2.579,-0.006,0.013,-0.021
157628,-9.687,-0.18,2.593,-0.006,0.013,-0.021
157731,-9.689,-0.182,2.593,-0.007,0.013,-0.021
157834,-9.689,-0.182,2.583,-0.006,0.013,-0.021
157937,-9.68,-0.175,2.591,-0.006,0.013,-0.021
158040,-9.697,-0.17,2.574,-0.006,0.013,-0.02
158143,-9.682,-0.172,2.6,-0.006,0.013,-0.021
158246,-9.687,-0.172,2.586,-0.006,0.013,-0.021
158349,-9.685,-0.175,2.571,-0.006,0.012,-0.021
158452,-9.687,-0.168,2.595,-0.006,0.013,-0.021
158555,-9.685,-0.168,2.579,-0.006,0.013,-0.021
158658,-9.692,-0.168,2.581,-0.006,0.012,-0.021
158761,-9.697,-0.172,2.598,-0.006,0.013,-0.021
158864,-9.699,-0.175,2.581,-0.006,0.013,-0.021
158967,-9.689,-0.17,2.562,-0.006,0.013,-0.021
159070,-9.685,-0.177,2.576,-0.006,0.013,-0.021
159173,-9.685,-0.175,2.583,-0.006,0.013,-0.021
159276,-9.685,-0.18,2.593,-0.006,0.013,-0.021
159379,-9.689,-0.182,2.586,-0.006,0.013,-0.021
159482,-9.685,-0.168,2.591,-0.006,0.013,-0.021
159585,-9.682,-0.18,2.591,-0.006,0.013,-0.021
159688,-9.692,-0.172,2.586,-0.006,0.013,-0.021
159791,-9.687,-0.17,2.586,-0.006,0.013,-0.021
159894,-9.68,-0.172,2.591,-0.006,0.012,-0.021
159997,-9.687,-0.172,2.588,-0.006,0.013,-0.021
160100,-9.673,-0.177,2.598,-0.006,0.012,-0.021
160203,-9.689,-0.175,2.583,-0.006,0.013,-0.021
160306,-9.697,-0.18,2.581,-0.006,0.013,-0.02
160409,-9.692,-0.17,2.571,-0.006,0.013,-0.021
160512,-9.692,-0.17,2.571,-0.006,0.012,-0.021
160615,-9.685,-0.18,2.595,-0.006,0.013,-0.02
160718,-9.68,-0.177,2.583,-0.006,0.013,-0.021
160821,-9.689,-0.184,2.583,-0.006,0.012,-0.021
160924,-9.682,-0.175,2.576,-0.006,0.013,-0.021
161027,-9.685,-0.165,2.583,-0.006,0.013,-0.021
161130,-9.682,-0.175,2.586,-0.006,0.013,-0.021
161233,-9.692,-0.168,2.588,-0.006,0.013,-0.021
161336,-9.682,-0.172,2.574,-0.006,0.013,-0.021
161439,-9.694,-0.168,2.598,-0.006,0.013,-0.021
161542,-9.697,-0.172,2.576,-0.007,0.013,-0.021
161645,-9.685,-0.168,2.574,-0.006,0.013,-0.021
161748,-9.692,-0.177,2.593,-0.006,0.013,-0.021
161851,-9.694,-0.172,2.586,-0.006,0.013,-0.021
161954,-9.692,-0.17,2.576,-0.006,0.013,-0.021
162057,-9.692,-0.177,2.586,-0.006,0.013,-0.02
162160,-9.689,-0.17,2.583,-0.006,0.013,-0.021
162263,-9.687,-0.182,2.602,-0.006,0.012,-0.021
162366,-9.687,-0.17,2.581,-0.006,0.012,-0.02
162469,-9.689,-0.175,2.567,-0.006,0.013,-0.021
162572,-9.689,-0.177,2.559,-0.007,0.013,-0.021
162675,-9.687,-0.177,2.591,-0.006,0.012,-0.021
162778,-9.699,-0.172,2.591,-0.006,0.013,-0.021
162881,-9.685,-0.17,2.567,-0.006,0.013,-0.021
162984,-9.685,-0.18,2.567,-0.006,0.013,-0.021
163087,-9.692,-0.175,2.595,-0.006,0.012,-0.021
163190,-9.682,-0.168,2.586,-0.006,0.012,-0.021
163293,-9.692,-0.175,2.581,-0.006,0.013,-0.021
163396,-9.685,-0.175,2.581,-0.006,0.013,-0.021
163499,-9.682,-0.172,2.586,-0.006,0.012,-0.021
163602,-9.685,-0.17,2.583,-0.006,0.013,-0.02
163705,-9.689,-0.18,2.576,-0.006,0.013,-0.021
163808,-9.697,-0.172,2.591,-0.006,0.013,-0.021
163911,-9.687,-0.175,2.586,-0.007,0.013,-0.021
164014,-9.687,-0.184,2.586,-0.006,0.013,-0.02
164117,-9.687,-0.182,2.593,-0.006,0.013,-0.021
164220,-9.68,-0.182,2.591,-0.006,0.012,-0.021
164323,-9.689,-0.175,2.581,-0.006,0.012,-0.021
164426,-9.692,-0.182,2.586,-0.006,0.012,-0.021
164529,-9.682,-0.172,2.579,-0.006,0.013,-0.021
164632,-9.682,-0.156,2.591,-0.006,0.012,-0.021
164735,-9.692,-0.177,2.588,-0.006,0.013,-0.021
164838,-9.68,-0.168,2.576,-0.006,0.013,-0.021
164941,-9.687,-0.175,2.598,-0.006,0.012,-0.021
165044,-9.689,-0.168,2.586,-0.006,0.013,-0.02
165147,-9.682,-0.177,2.598,-0.006,0.013,-0.021
165250,-9.685,-0.168,2.583,-0.006,0.013,-0.021
165353,-9.692,-0.168,2.579,-0.006,0.013,-0.02
165456,-9.682,-0.172,2.574,-0.006,0.013,-0.02
165559,-9.697,-0.168,2.588,-0.006,0.013,-0.021
165662,-9.697,-0.172,2.588,-0.006,0.013,-0.021
165765,-9.68,-0.165,2.593,-0.006,0.013,-0.021
165868,-9.689,-0.177,2.581,-0.006,0.013,-0.021
165971,-9.687,-0.172,2.588,-0.006,0.013,-0.021
166074,-9.687,-0.17,2.571,-0.006,0.012,-0.021
166177,-9.694,-0.175,2.588,-0.006,0.012,-0.021
166280,-9.682,-0.18,2.593,-0.006,0.013,-0.021
166383,-9.687,-0.168,2.579,-0.006,0.013,-0.021
166486,-9.694,-0.175,2.569,-0.007,0.013,-0.021
166589,-9.677,-0.168,2.574,-0.006,0.013,-0.021
166692,-9.689,-0.168,2.586,-0.006,0.013,-0.021
166795,-9.687,-0.172,2.586,-0.006,0.012,-0.021
166898,-9.682,-0.17,2.574,-0.006,0.012,-0.02
167001,-9.689,-0.163,2.579,-0.006,0.012,-0.021
167104,-9.685,-0.168,2.588,-0.006,0.013,-0.021
167207,-9.682,-0.17,2.593,-0.006,0.012,-0.02
167310,-9.677,-0.184,2.591,-0.006,0.013,-0.021
167413,-9.687,-0.17,2.593,-0.006,0.012,-0.021
167516,-9.697,-0.177,2.574,-0.006,0.013,-0.021
167619,-9.701,-0.184,2.581,-0.006,0.013,-0.021
167722,-9.685,-0.175,2.586,-0.006,0.012,-0.021
167825,-9.692,-0.182,2.591,-0.006,0.013,-0.021
167928,-9.689,-0.182,2.591,-0.006,0.013,-0.02
168031,-9.689,-0.17,2.593,-0.006,0.012,-0.021
168134,-9.689,-0.172,2.593,-0.006,0.013,-0.021
168237,-9.682,-0.17,2.593,-0.007,0.013,-0.021
168340,-9.689,-0.168,2.576,-0.006,0.013,-0.021
168443,-9.694,-0.175,2.588,-0.007,0.012,-0.021
168546,-9.692,-0.165,2.576,-0.006,0.013,-0.021
168649,-9.68,-0.165,2.579,-0.006,0.013,-0.021
168752,-9.682,-0.18,2.583,-0.006,0.013,-0.021
168855,-9.682,-0.18,2.581,-0.006,0.013,-0.021
168958,-9.692,-0.177,2.591,-0.006,0.013,-0.021
169061,-9.689,-0.172,2.586,-0.006,0.013,-0.021
169164,-9.692,-0.177,2.591,-0.006,0.012,-0.021
169267,-9.697,-0.168,2.598,-0.006,0.013,-0.021
169370,-9.677,-0.177,2.583,-0.006,0.012,-0.021
169473,-9.687,-0.18,2.591,-0.006,0.013,-0.021
169576,-9.692,-0.177,2.593,-0.006,0.013,-0.02
169679,-9.685,-0.184,2.576,-0.006,0.013,-0.021
169782,-9.694,-0.177,2.583,-0.006,0.013,-0.021
169885,-9.701,-0.175,2.595,-0.006,0.013,-0.021
169988,-9.692,-0.172,2.588,-0.006,0.012,-0.021
170091,-9.687,-0.177,2.595,-0.006,0.013,-0.021
170194,-9.694,-0.177,2.576,-0.006,0.013,-0.021
170297,-9.689,-0.175,2.583,-0.006,0.013,-0.021
170400,-9.685,-0.18,2.586,-0.006,0.013,-0.021
170503,-9.685,-0.17,2.576,-0.006,0.013,-0.021
170606,-9.694,-0.184,2.595,-0.006,0.012,-0.021
170709,-9.689,-0.175,2.583,-0.006,0.012,-0.021
170812,-9.685,-0.165,2.591,-0.006,0.012,-0.021
170915,-9.689,-0.168,2.586,-0.006,0.013,-0.021
171018,-9.694,-0.18,2.581,-0.006,0.013,-0.021
171121,-9.68,-0.168,2.595,-0.006,0.013,-0.021
171224,-9.692,-0.182,2.576,-0.006,0.012,-0.021
171327,-9.685,-0.177,2.591,-0.006,0.013,-0.021
171430,-9.694,-0.18,2.593,-0.006,0.012,-0.021
171533,-9.685,-0.17,2.588,-0.006,0.013,-0.021
171636,-9.692,-0.175,2.593,-0.006,0.013,-0.021
171739,-9.694,-0.18,2.591,-0.006,0.013,-0.021
171842,-9.687,-0.175,2.6,-0.006,0.013,-0.021
171945,-9.682,-0.168,2.581,-0.007,0.013,-0.021
172048,-9.694,-0.175,2.579,-0.006,0.013,-0.021
172151,-9.692,-0.177,2.588,-0.007,0.012,-0.021
172254,-9.677,-0.177,2.583,-0.006,0.013,-0.021
172357,-9.687,-0.18,2.586,-0.006,0.013,-0.021
172460,-9.685,-0.177,2.591,-0.006,0.013,-0.021
172563,-9.689,-0.172,2.591,-0.007,0.013,-0.021
172666,-9.694,-0.184,2.583,-0.006,0.012,-0.021
172769,-9.697,-0.18,2.583,-0.006,0.013,-0.021
172872,-9.694,-0.168,2.583,-0.007,0.013,-0.021
172975,-9.694,-0.184,2.586,-0.007,0.012,-0.021
173078,-9.689,-0.17,2.586,-0.006,0.013,-0.02
173181,-9.692,-0.175,2.583,-0.006,0.012,-0.021
173284,-9.692,-0.177,2.598,-0.006,0.012,-0.021
173387,-9.689,-0.17,2.576,-0.006,0.013,-0.021
173490,-9.692,-0.182,2.586,-0.006,0.012,-0.021
173593,-9.692,-0.18,2.595,-0.006,0.013,-0.021
173696,-9.687,-0.18,2.586,-0.006,0.013,-0.021
173799,-9.694,-0.16,2.579,-0.006,0.012,-0.021
173902,-9.685,-0.172,2.593,-0.006,0.013,-0.021
174005,-9.689,-0.175,2.581,-0.007,0.013,-0.021
174108,-9.682,-0.177,2.591,-0.006,0.013,-0.021
174211,-9.682,-0.168,2.583,-0.006,0.013,-0.021
174314,-9.692,-0.187,2.595,-0.006,0.013,-0.021
174417,-9.692,-0.175,2.591,-0.007,0.013,-0.021
174520,-9.682,-0.18,2.598,-0.006,0.013,-0.021
174623,-9.689,-0.175,2.571,-0.006,0.012,-0.021
174726,-9.692,-0.172,2.579,-0.006,0.013,-0.021
174829,-9.687,-0.172,2.574,-0.006,0.013,-0.021
174932,-9.694,-0.17,2.583,-0.006,0.013,-0.021
175035,-9.677,-0.175,2.593,-0.006,0.013,-0.021
175138,-9.685,-0.172,2.581,-0.006,0.013,-0.021
175241,-9.692,-0.175,2.581,-0.006,0.013,-0.021
175344,-9.685,-0.165,2.579,-0.006,0.012,-0.021
175447,-9.694,-0.18,2.583,-0.006,0.012,-0.02
175550,-9.685,-0.175,2.588,-0.006,0.013,-0.021
175653,-9.694,-0.187,2.581,-0.006,0.013,-0.021
175756,-9.685,-0.172,2.595,-0.006,0.013,-0.021
175859,-9.687,-0.172,2.574,-0.006,0.012,-0.021
175962,-9.687,-0.165,2.591,-0.006,0.012,-0.021
176065,-9.685,-0.172,2.583,-0.007,0.013,-0.021
176168,-9.689,-0.168,2.574,-0.006,0.013,-0.021
176271,-9.689,-0.175,2.588,-0.007,0.013,-0.021
176374,-9.68,-0.175,2.591,-0.006,0.013,-0.021
176477,-9.687,-0.172,2.602,-0.006,0.013,-0.021
176580,-9.689,-0.175,2.588,-0.006,0.013,-0.021
176683,-9.68,-0.177,2.595,-0.006,0.013,-0.021
176786,-9.685,-0.172,2.571,-0.006,0.013,-0.021
176889,-9.685,-0.182,2.586,-0.006,0.013,-0.021
176992,-9.692,-0.18,2.586,-0.006,0.013,-0.021
177095,-9.689,-0.177,2.591,-0.006,0.013,-0.021
177198,-9.689,-0.177,2.586,-0.006,0.013,-0.021
177301,-9.677,-0.18,2.579,-0.006,0.013,-0.021
177404,-9.687,-0.17,2.581,-0.006,0.013,-0.021
177507,-9.682,-0.17,2.569,-0.006,0.013,-0.02
177610,-9.697,-0.172,2.6,-0.006,0.012,-0.02
177713,-9.701,-0.172,2.579,-0.006,0.013,-0.021
177816,-9.68,-0.177,2.598,-0.006,0.013,-0.021
177919,-9.694,-0.175,2.598,-0.006,0.013,-0.021
178022,-9.689,-0.18,2.593,-0.006,0.013,-0.02
178125,-9.694,-0.17,2.579,-0.006,0.013,-0.021
178228,-9.694,-0.18,2.598,-0.006,0.012,-0.021
178331,-9.685,-0.184,2.588,-0.006,0.013,-0.02
178434,-9.685,-0.168,2.591,-0.006,0.013,-0.021
178537,-9.689,-0.168,2.581,-0.006,0.013,-0.021
178640,-9.685,-0.182,2.588,-0.006,0.013,-0.021
178743,-9.68,-0.172,2.579,-0.006,0.013,-0.021
178846,-9.687,-0.168,2.586,-0.007,0.013,-0.021
178949,-9.687,-0.177,2.586,-0.007,0.013,-0.02
179052,-9.685,-0.175,2.583,-0.006,0.013,-0.021
179155,-9.682,-0.18,2.583,-0.006,0.012,-0.021
179258,-9.68,-0.182,2.588,-0.006,0.012,-0.021
179361,-9.689,-0.175,2.576,-0.006,0.012,-0.021
179464,-9.682,-0.172,2.598,-0.006,0.012,-0.021
179567,-9.694,-0.182,2.593,-0.006,0.013,-0.021
179670,-9.687,-0.175,2.593,-0.006,0.012,-0.021
179773,-9.687,-0.175,2.593,-0.006,0.012,-0.021
179876,-9.687,-0.184,2.581,-0.006,0.012,-0.021
179979,-9.685,-0.175,2.602,-0.006,0.013,-0.021
180082,-9.673,-0.163,2.6,-0.007,0.013,-0.021
180185,-9.692,-0.177,2.593,-0.006,0.013,-0.021
180288,-9.687,-0.165,2.581,-0.006,0.012,-0.021
180391,-9.687,-0.18,2.591,-0.006,0.013,-0.021
180494,-9.687,-0.175,2.593,-0.006,0.013,-0.021
180597,-9.673,-0.168,2.586,-0.006,0.013,-0.021
180700,-9.687,-0.172,2.574,-0.007,0.012,-0.021
180803,-9.694,-0.17,2.579,-0.007,0.012,-0.021
180906,-9.682,-0.17,2.583,-0.006,0.013,-0.021
181009,-9.649,-0.194,2.49,-0.004,-0.284,-0.012
181112,-9.646,-0.168,3.019,-0.005,-0.1,-0.017
181215,-9.608,-0.163,2.928,-0.006,0.006,-0.02
181318,-9.625,-0.163,2.907,-0.006,0.012,-0.02
181421,-9.622,-0.158,2.931,-0.006,0.012,-0.021
181524,-9.61,-0.16,2.916,-0.006,0.013,-0.021
181627,-9.62,-0.156,2.928,-0.006,0.012,-0.02
181730,-9.61,-0.158,2.933,-0.006,0.012,-0.02
181833,-9.606,-0.168,2.926,-0.006,0.013,-0.021
181936,-9.608,-0.153,2.909,-0.006,0.012,-0.02
182039,-9.615,-0.165,2.916,-0.006,0.012,-0.02
182142,-9.61,-0.168,2.921,-0.006,0.013,-0.02
182245,-9.61,-0.16,2.904,-0.006,0.013,-0.02
182348,-9.61,-0.163,2.926,-0.006,0.013,-0.021
182451,-9.61,-0.163,2.931,-0.006,0.013,-0.02
182554,-9.613,-0.16,2.907,-0.007,0.013,-0.02
182657,-9.606,-0.165,2.928,-0.006,0.013,-0.02
182760,-9.62,-0.168,2.923,-0.006,0.012,-0.02
182863,-9.613,-0.16,2.911,-0.006,0.012,-0.02
182966,-9.613,-0.158,2.916,-0.006,0.013,-0.02
183069,-9.613,-0.17,2.916,-0.006,0.013,-0.02
183172,-9.603,-0.165,2.928,-0.006,0.013,-0.02
183275,-9.613,-0.168,2.916,-0.006,0.013,-0.02
183378,-9.601,-0.165,2.919,-0.006,0.013,-0.021
183481,-9.608,-0.156,2.914,-0.006,0.013,-0.02
183584,-9.61,-0.158,2.914,-0.006,0.013,-0.02
183687,-9.615,-0.16,2.919,-0.006,0.013,-0.02
183790,-9.615,-0.163,2.921,-0.006,0.013,-0.02
183893,-9.61,-0.163,2.933,-0.006,0.012,-0.02
183996,-9.61,-0.158,2.926,-0.006,0.013,-0.021
184099,-9.608,-0.168,2.911,-0.006,0.013,-0.02
184202,-9.61,-0.172,2.914,-0.006,0.013,-0.02
184305,-9.613,-0.163,2.921,-0.006,0.013,-0.02
184408,-9.61,-0.17,2.919,-0.006,0.013,-0.02
184511,-9.603,-0.156,2.933,-0.006,0.013,-0.02
184614,-9.613,-0.168,2.926,-0.006,0.012,-0.02
184717,-9.615,-0.165,2.916,-0.006,0.013,-0.02
184820,-9.615,-0.156,2.916,-0.006,0.013,-0.02
184923,-9.618,-0.17,2.919,-0.006,0.013,-0.021
185026,-9.608,-0.165,2.928,-0.006,0.013,-0.02
185129,-9.61,-0.16,2.923,-0.006,0.013,-0.02
185232,-9.613,-0.158,2.911,-0.006,0.013,-0.021
185335,-9.606,-0.158,2.926,-0.006,0.013,-0.02
185438,-9.61,-0.165,2.909,-0.006,0.012,-0.021
185541,-9.618,-0.168,2.931,-0.006,0.013,-0.021
185644,-9.618,-0.153,2.904,-0.006,0.012,-0.021
185747,-9.608,-0.16,2.926,-0.006,0.013,-0.02
185850,-9.61,-0.165,2.921,-0.006,0.013,-0.02
185953,-9.613,-0.16,2.911,-0.006,0.013,-0.02
186056,-9.61,-0.148,2.926,-0.006,0.013,-0.02
186159,-9.608,-0.151,2.942,-0.006,0.013,-0.02
186262,-9.613,-0.16,2.928,-0.006,0.013,-0.02
186365,-9.61,-0.163,2.928,-0.006,0.012,-0.02
186468,-9.61,-0.165,2.916,-0.006,0.013,-0.02
186571,-9.62,-0.158,2.923,-0.006,0.013,-0.021
186674,-9.618,-0.156,2.923,-0.006,0.012,-0.021
186777,-9.62,-0.158,2.911,-0.006,0.013,-0.02
186880,-9.61,-0.16,2.916,-0.007,0.013,-0.021
186983,-9.625,-0.16,2.919,-0.006,0.013,-0.02
187086,-9.608,-0.156,2.931,-0.006,0.013,-0.02
187189,-9.62,-0.163,2.921,-0.006,0.013,-0.02
187292,-9.613,-0.165,2.904,-0.006,0.013,-0.02
187395,-9.62,-0.17,2.902,-0.006,0.013,-0.02
187498,-9.622,-0.16,2.914,-0.006,0.013,-0.02
187601,-9.613,-0.163,2.919,-0.006,0.013,-0.02
187704,-9.603,-0.163,2.914,-0.006,0.013,-0.02
187807,-9.613,-0.165,2.909,-0.006,0.013,-0.02
187910,-9.61,-0.156,2.933,-0.006,0.013,-0.02
188013,-9.62,-0.158,2.916,-0.007,0.013,-0.02
188116,-9.606,-0.163,2.938,-0.007,0.013,-0.02
188219,-9.608,-0.158,2.931,-0.006,0.013,-0.02
188322,-9.615,-0.175,2.921,-0.006,0.013,-0.02
188425,-9.606,-0.163,2.926,-0.006,0.013,-0.02
188528,-9.613,-0.165,2.923,-0.006,0.013,-0.021
188631,-9.618,-0.17,2.921,-0.006,0.013,-0.021
188734,-9.613,-0.163,2.919,-0.006,0.013,-0.021
188837,-9.61,-0.156,2.935,-0.006,0.013,-0.021
188940,-9.62,-0.16,2.909,-0.006,0.013,-0.02
189043,-9.61,-0.156,2.911,-0.006,0.013,-0.021
189146,-9.622,-0.153,2.899,-0.006,0.013,-0.021
189249,-9.61,-0.156,2.911,-0.006,0.013,-0.02
189352,-9.613,-0.16,2.909,-0.006,0.013,-0.02
189455,-9.615,-0.175,2.933,-0.006,0.013,-0.02
189558,-9.601,-0.158,2.921,-0.006,0.012,-0.02
189661,-9.613,-0.158,2.919,-0.006,0.013,-0.02
189764,-9.613,-0.151,2.923,-0.006,0.013,-0.021
189867,-9.613,-0.163,2.921,-0.006,0.013,-0.02
189970,-9.613,-0.17,2.916,-0.006,0.012,-0.021
190073,-9.61,-0.165,2.933,-0.006,0.013,-0.02
190176,-9.603,-0.156,2.914,-0.006,0.013,-0.02
190279,-9.618,-0.158,2.933,-0.007,0.012,-0.02
190382,-9.608,-0.16,2.926,-0.006,0.013,-0.02
190485,-9.618,-0.16,2.921,-0.006,0.012,-0.02
190588,-9.622,-0.163,2.923,-0.006,0.012,-0.02
190691,-9.608,-0.16,2.926,-0.006,0.012,-0.02
190794,-9.61,-0.158,2.909,-0.006,0.013,-0.02
190897,-9.615,-0.153,2.921,-0.006,0.012,-0.02
191000,-9.61,-0.16,2.926,-0.006,0.012,-0.02
191103,-9.625,-0.158,2.919,-0.006,0.013,-0.02
191206,-9.613,-0.175,2.928,-0.006,0.012,-0.02
191309,-9.613,-0.16,2.926,-0.006,0.013,-0.02
191412,-9.615,-0.163,2.919,-0.006,0.012,-0.02
191515,-9.603,-0.163,2.921,-0.006,0.013,-0.02
191618,-9.615,-0.168,2.921,-0.006,0.013,-0.02
191721,-9.606,-0.168,2.928,-0.006,0.013,-0.021
191824,-9.61,-0.165,2.921,-0.006,0.013,-0.02
191927,-9.608,-0.165,2.916,-0.006,0.013,-0.02
192030,-9.627,-0.16,2.899,-0.006,0.012,-0.02
192133,-9.608,-0.156,2.911,-0.006,0.013,-0.02
192236,-9.613,-0.151,2.911,-0.006,0.013,-0.02
192339,-9.618,-0.168,2.928,-0.006,0.012,-0.02
192442,-9.615,-0.158,2.909,-0.007,0.013,-0.02
192545,-9.618,-0.163,2.911,-0.006,0.012,-0.021
192648,-9.613,-0.16,2.926,-0.006,0.013,-0.021
192751,-9.62,-0.163,2.902,-0.006,0.013,-0.02
192854,-9.613,-0.16,2.907,-0.006,0.012,-0.02
192957,-9.603,-0.165,2.909,-0.006,0.013,-0.021
193060,-9.613,-0.168,2.911,-0.006,0.013,-0.021
193163,-9.615,-0.165,2.921,-0.006,0.013,-0.021
193266,-9.606,-0.163,2.945,-0.006,0.013,-0.021
193369,-9.618,-0.163,2.938,-0.006,0.013,-0.021
193472,-9.613,-0.165,2.916,-0.006,0.013,-0.02
193575,-9.61,-0.16,2.907,-0.006,0.013,-0.021
193678,-9.61,-0.165,2.914,-0.006,0.012,-0.021
193781,-9.613,-0.158,2.916,-0.006,0.013,-0.021
193884,-9.608,-0.17,2.916,-0.007,0.013,-0.021
193987,-9.622,-0.163,2.911,-0.006,0.013,-0.021
194090,-9.615,-0.165,2.928,-0.006,0.013,-0.021
194193,-9.62,-0.146,2.921,-0.006,0.013,-0.021
194296,-9.613,-0.165,2.926,-0.006,0.012,-0.02
194399,-9.608,-0.16,2.916,-0.006,0.013,-0.02
194502,-9.608,-0.156,2.919,-0.006,0.012,-0.02
194605,-9.61,-0.165,2.914,-0.006,0.013,-0.02
194708,-9.613,-0.158,2.919,-0.006,0.013,-0.02
194811,-9.613,-0.16,2.935,-0.006,0.012,-0.021
194914,-9.613,-0.165,2.919,-0.006,0.013,-0.02
195017,-9.615,-0.153,2.928,-0.006,0.013,-0.02
195120,-9.613,-0.148,2.928,-0.006,0.012,-0.02
195223,-9.601,-0.158,2.923,-0.006,0.013,-0.02
195326,-9.618,-0.168,2.916,-0.006,0.013,-0.02
195429,-9.618,-0.168,2.923,-0.006,0.013,-0.02
195532,-9.606,-0.16,2.928,-0.006,0.013,-0.02
195635,-9.608,-0.16,2.911,-0.006,0.013,-0.02
195738,-9.61,-0.156,2.909,-0.006,0.013,-0.02
195841,-9.603,-0.172,2.926,-0.006,0.013,-0.021
195944,-9.61,-0.16,2.907,-0.006,0.012,-0.021
196047,-9.61,-0.165,2.911,-0.006,0.013,-0.021
196150,-9.615,-0.168,2.921,-0.007,0.013,-0.021
196253,-9.61,-0.175,2.911,-0.006,0.012,-0.02
196356,-9.615,-0.165,2.909,-0.006,0.012,-0.021
196459,-9.613,-0.168,2.916,-0.006,0.013,-0.02
196562,-9.618,-0.163,2.919,-0.006,0.013,-0.02
196665,-9.61,-0.158,2.909,-0.007,0.013,-0.021
196768,-9.606,-0.163,2.926,-0.006,0.012,-0.021
196871,-9.615,-0.165,2.921,-0.006,0.012,-0.02
196974,-9.61,-0.16,2.931,-0.006,0.013,-0.02
197077,-9.625,-0.158,2.923,-0.006,0.013,-0.02
197180,-9.613,-0.156,2.923,-0.006,0.013,-0.021
197283,-9.613,-0.175,2.926,-0.006,0.013,-0.02
197386,-9.61,-0.168,2.921,-0.006,0.013,-0.02
197489,-9.608,-0.165,2.921,-0.006,0.013,-0.02
197592,-9.61,-0.17,2.928,-0.006,0.013,-0.021
197695,-9.615,-0.165,2.904,-0.006,0.013,-0.021
197798,-9.61,-0.158,2.921,-0.006,0.013,-0.021
197901,-9.598,-0.17,2.926,-0.006,0.012,-0.02
198004,-9.618,-0.158,2.916,-0.006,0.013,-0.02
198107,-9.613,-0.16,2.904,-0.006,0.013,-0.021
198210,-9.615,-0.16,2.926,-0.006,0.013,-0.021
198313,-9.606,-0.16,2.914,-0.006,0.013,-0.02
198416,-9.62,-0.158,2.923,-0.007,0.013,-0.02
198519,-9.618,-0.151,2.928,-0.006,0.013,-0.02
198622,-9.608,-0.153,2.914,-0.006,0.013,-0.021
198725,-9.603,-0.168,2.931,-0.006,0.012,-0.021
198828,-9.603,-0.16,2.902,-0.006,0.012,-0.021
198931,-9.615,-0.16,2.921,-0.006,0.013,-0.02
199034,-9.615,-0.16,2.919,-0.006,0.013,-0.02
199137,-9.615,-0.16,2.907,-0.006,0.013,-0.02
199240,-9.618,-0.168,2.921,-0.006,0.013,-0.02
199343,-9.615,-0.156,2.914,-0.007,0.013,-0.02
199446,-9.61,-0.163,2.931,-0.006,0.012,-0.021
199549,-9.613,-0.163,2.921,-0.006,0.013,-0.02
199652,-9.608,-0.158,2.914,-0.006,0.013,-0.02
199755,-9.606,-0.168,2.916,-0.006,0.013,-0.021
199858,-9.608,-0.17,2.904,-0.006,0.013,-0.02
199961,-9.618,-0.172,2.921,-0.006,0.013,-0.02
200064,-9.615,-0.153,2.914,-0.006,0.013,-0.021
200167,-9.615,-0.165,2.928,-0.006,0.013,-0.02
200270,-9.61,-0.16,2.919,-0.006,0.013,-0.021
200373,-9.618,-0.168,2.909,-0.006,0.013,-0.021
200476,-9.622,-0.165,2.926,-0.006,0.013,-0.02
200579,-9.61,-0.165,2.919,-0.006,0.013,-0.02
200682,-9.622,-0.163,2.923,-0.006,0.013,-0.02
200785,-9.61,-0.16,2.916,-0.006,0.012,-0.02
200888,-9.613,-0.163,2.919,-0.006,0.013,-0.02
200991,-9.61,-0.17,2.921,-0.007,0.013,-0.021
201094,-9.622,-0.16,2.926,-0.006,0.013,-0.021
201197,-9.613,-0.165,2.911,-0.006,0.013,-0.02
201300,-9.622,-0.163,2.921,-0.006,0.013,-0.02
201403,-9.622,-0.16,2.914,-0.006,0.013,-0.021
201506,-9.601,-0.158,2.919,-0.006,0.013,-0.02
201609,-9.61,-0.16,2.921,-0.006,0.013,-0.02
201712,-9.613,-0.16,2.909,-0.006,0.013,-0.02
201815,-9.62,-0.168,2.919,-0.006,0.013,-0.021
201918,-9.618,-0.17,2.914,-0.006,0.013,-0.02
202021,-9.627,-0.158,2.933,-0.006,0.013,-0.02
202124,-9.61,-0.172,2.926,-0.006,0.013,-0.021
202227,-9.62,-0.156,2.911,-0.006,0.013,-0.021
202330,-9.613,-0.16,2.911,-0.006,0.013,-0.021
202433,-9.618,-0.168,2.911,-0.006,0.013,-0.021
202536,-9.622,-0.163,2.942,-0.006,0.013,-0.02
202639,-9.613,-0.165,2.926,-0.006,0.013,-0.021
202742,-9.618,-0.165,2.923,-0.006,0.013,-0.02
202845,-9.608,-0.158,2.916,-0.006,0.013,-0.02
202948,-9.625,-0.16,2.921,-0.006,0.013,-0.02
203051,-9.622,-0.163,2.933,-0.006,0.013,-0.02
203154,-9.606,-0.156,2.921,-0.006,0.012,-0.02
203257,-9.606,-0.175,2.928,-0.006,0.013,-0.021
203360,-9.61,-0.163,2.911,-0.007,0.013,-0.021
203463,-9.62,-0.16,2.914,-0.006,0.012,-0.021
203566,-9.618,-0.168,2.904,-0.006,0.012,-0.02
203669,-9.61,-0.16,2.923,-0.006,0.013,-0.02
203772,-9.608,-0.163,2.919,-0.006,0.013,-0.02
203875,-9.62,-0.163,2.926,-0.006,0.012,-0.02
203978,-9.606,-0.153,2.923,-0.006,0.013,-0.02
204081,-9.613,-0.163,2.909,-0.006,0.013,-0.02
204184,-9.613,-0.16,2.921,-0.006,0.013,-0.02
204287,-9.608,-0.163,2.914,-0.006,0.012,-0.02
204390,-9.625,-0.163,2.923,-0.006,0.013,-0.02
204493,-9.606,-0.156,2.914,-0.006,0.013,-0.02
204596,-9.613,-0.172,2.919,-0.006,0.013,-0.02
204699,-9.615,-0.17,2.909,-0.006,0.013,-0.021
204802,-9.627,-0.163,2.914,-0.007,0.013,-0.02
204905,-9.613,-0.156,2.919,-0.006,0.013,-0.021
205008,-9.606,-0.165,2.902,-0.006,0.013,-0.021
205111,-9.608,-0.158,2.923,-0.006,0.013,-0.021
205214,-9.622,-0.165,2.907,-0.006,0.013,-0.02
205317,-9.62,-0.156,2.916,-0.006,0.013,-0.02
205420,-9.615,-0.165,2.907,-0.006,0.013,-0.02
205523,-9.625,-0.165,2.935,-0.006,0.013,-0.02
205626,-9.622,-0.148,2.926,-0.006,0.013,-0.02
205729,-9.618,-0.156,2.931,-0.006,0.013,-0.021
205832,-9.603,-0.17,2.904,-0.006,0.013,-0.02
205935,-9.601,-0.163,2.904,-0.007,0.013,-0.02
206038,-9.62,-0.16,2.916,-0.006,0.013,-0.02
206141,-9.613,-0.163,2.931,-0.006,0.013,-0.02
206244,-9.618,-0.16,2.899,-0.006,0.013,-0.02
206347,-9.618,-0.16,2.928,-0.006,0.013,-0.021
206450,-9.613,-0.16,2.935,-0.006,0.013,-0.021
206553,-9.613,-0.168,2.923,-0.006,0.012,-0.021
206656,-9.613,-0.16,2.923,-0.006,0.013,-0.02
206759,-9.61,-0.172,2.911,-0.006,0.013,-0.02
206862,-9.618,-0.156,2.919,-0.006,0.013,-0.02
206965,-9.622,-0.163,2.909,-0.006,0.013,-0.02
207068,-9.62,-0.156,2.911,-0.006,0.013,-0.02
207171,-9.615,-0.165,2.919,-0.006,0.012,-0.02
207274,-9.608,-0.16,2.921,-0.006,0.013,-0.021
207377,-9.615,-0.156,2.916,-0.006,0.013,-0.021
207480,-9.613,-0.156,2.923,-0.006,0.013,-0.021
207583,-9.608,-0.168,2.928,-0.006,0.013,-0.021
207686,-9.625,-0.151,2.931,-0.006,0.013,-0.02
207789,-9.618,-0.168,2.916,-0.006,0.013,-0.02
207892,-9.615,-0.163,2.919,-0.006,0.013,-0.021
207995,-9.615,-0.163,2.909,-0.006,0.013,-0.02
208098,-9.62,-0.153,2.916,-0.006,0.012,-0.02
208201,-9.618,-0.16,2.921,-0.006,0.012,-0.02
208304,-9.61,-0.163,2.931,-0.006,0.013,-0.02
208407,-9.61,-0.172,2.94,-0.006,0.013,-0.021
208510,-9.618,-0.165,2.914,-0.006,0.013,-0.02
208613,-9.615,-0.17,2.914,-0.006,0.012,-0.02
208716,-9.62,-0.156,2.907,-0.006,0.013,-0.02
208819,-9.615,-0.156,2.914,-0.006,0.013,-0.021
208922,-9.62,-0.153,2.931,-0.006,0.012,-0.02
209025,-9.622,-0.163,2.928,-0.006,0.013,-0.02
209128,-9.62,-0.165,2.909,-0.006,0.013,-0.02
209231,-9.613,-0.17,2.933,-0.006,0.013,-0.02
209334,-9.613,-0.156,2.923,-0.006,0.012,-0.02
209437,-9.625,-0.17,2.933,-0.006,0.013,-0.02
209540,-9.61,-0.168,2.933,-0.006,0.013,-0.02
209643,-9.62,-0.163,2.909,-0.006,0.013,-0.021
209746,-9.613,-0.165,2.923,-0.006,0.013,-0.02
209849,-9.613,-0.156,2.914,-0.007,0.013,-0.02
209952,-9.627,-0.17,2.919,-0.006,0.012,-0.02
210055,-9.615,-0.156,2.916,-0.006,0.013,-0.021
210158,-9.608,-0.151,2.914,-0.006,0.013,-0.02
210261,-9.61,-0.158,2.919,-0.006,0.013,-0.02
210364,-9.613,-0.163,2.916,-0.006,0.013,-0.02
210467,-9.606,-0.168,2.928,-0.006,0.013,-0.02
210570,-9.615,-0.165,2.926,-0.006,0.012,-0.021
210673,-9.61,-0.163,2.921,-0.006,0.013,-0.02
210776,-9.613,-0.165,2.914,-0.006,0.013,-0.02
210879,-9.615,-0.16,2.916,-0.006,0.013,-0.02
210982,-9.615,-0.158,2.931,-0.006,0.013,-0.02
211085,-9.625,-0.158,2.933,-0.007,0.013,-0.02
211188,-9.618,-0.165,2.919,-0.006,0.013,-0.02
211291,-9.61,-0.16,2.916,-0.006,0.013,-0.021
211394,-9.622,-0.163,2.914,-0.006,0.013,-0.021
211497,-9.608,-0.158,2.928,-0.006,0.013,-0.02
211600,-9.613,-0.16,2.919,-0.006,0.013,-0.02
211703,-9.613,-0.165,2.923,-0.006,0.013,-0.02
211806,-9.62,-0.156,2.919,-0.006,0.013,-0.02
211909,-9.618,-0.158,2.923,-0.006,0.012,-0.02
212012,-9.62,-0.168,2.935,-0.006,0.013,-0.02
212115,-9.608,-0.156,2.921,-0.006,0.013,-0.02
212218,-9.622,-0.163,2.931,-0.006,0.012,-0.02
212321,-9.615,-0.163,2.907,-0.006,0.013,-0.02
212424,-9.613,-0.175,2.919,-0.006,0.013,-0.02
212527,-9.62,-0.168,2.923,-0.006,0.013,-0.021
212630,-9.613,-0.163,2.916,-0.006,0.013,-0.021
212733,-9.615,-0.165,2.921,-0.006,0.013,-0.02
212836,-9.61,-0.165,2.911,-0.006,0.013,-0.021
212939,-9.61,-0.158,2.911,-0.006,0.013,-0.02
213042,-9.62,-0.163,2.926,-0.006,0.013,-0.02
213145,-9.613,-0.16,2.919,-0.006,0.012,-0.02
213248,-9.613,-0.158,2.919,-0.006,0.012,-0.021
213351,-9.618,-0.158,2.923,-0.007,0.013,-0.02
213454,-9.613,-0.153,2.923,-0.006,0.013,-0.02
213557,-9.62,-0.158,2.909,-0.006,0.013,-0.02
213660,-9.618,-0.148,2.916,-0.006,0.013,-0.02
213763,-9.615,-0.156,2.907,-0.006,0.013,-0.02
213866,-9.61,-0.16,2.923,-0.006,0.013,-0.021
213969,-9.615,-0.17,2.923,-0.006,0.013,-0.021
214072,-9.603,-0.16,2.919,-0.006,0.013,-0.02
214175,-9.61,-0.163,2.928,-0.006,0.012,-0.02
214278,-9.618,-0.16,2.921,-0.006,0.012,-0.02
214381,-9.613,-0.16,2.923,-0.006,0.013,-0.021
214484,-9.615,-0.156,2.923,-0.006,0.012,-0.02
214587,-9.608,-0.146,2.921,-0.006,0.013,-0.021
214690,-9.61,-0.165,2.926,-0.006,0.013,-0.02
214793,-9.62,-0.151,2.914,-0.006,0.013,-0.021
214896,-9.601,-0.163,2.921,-0.006,0.013,-0.021
214999,-9.615,-0.168,2.928,-0.006,0.013,-0.02
215102,-9.613,-0.158,2.935,-0.006,0.013,-0.02
215205,-9.613,-0.158,2.926,-0.006,0.013,-0.021
215308,-9.613,-0.163,2.907,-0.006,0.013,-0.02
215411,-9.615,-0.163,2.916,-0.006,0.013,-0.02
215514,-9.608,-0.153,2.919,-0.006,0.013,-0.02
215617,-9.62,-0.156,2.933,-0.006,0.012,-0.021
215720,-9.62,-0.16,2.923,-0.006,0.013,-0.02
215823,-9.615,-0.165,2.914,-0.006,0.013,-0.02
215926,-9.61,-0.153,2.921,-0.006,0.013,-0.021
216029,-9.615,-0.151,2.923,-0.006,0.013,-0.02
216132,-9.615,-0.163,2.926,-0.006,0.012,-0.02
216235,-9.618,-0.165,2.923,-0.006,0.012,-0.02
216338,-9.608,-0.163,2.921,-0.006,0.013,-0.021
216441,-9.613,-0.163,2.916,-0.007,0.013,-0.021
216544,-9.608,-0.156,2.911,-0.006,0.013,-0.02
216647,-9.62,-0.16,2.921,-0.006,0.013,-0.02
216750,-9.618,-0.158,2.931,-0.006,0.013,-0.02
216853,-9.62,-0.163,2.928,-0.006,0.013,-0.02
216956,-9.61,-0.16,2.928,-0.006,0.012,-0.02
217059,-9.613,-0.168,2.904,-0.006,0.013,-0.02
217162,-9.618,-0.158,2.909,-0.006,0.013,-0.021
217265,-9.615,-0.17,2.914,-0.006,0.013,-0.021
217368,-9.608,-0.156,2.926,-0.006,0.013,-0.02
217471,-9.615,-0.163,2.928,-0.006,0.013,-0.021
217574,-9.61,-0.172,2.907,-0.006,0.013,-0.021
217677,-9.622,-0.156,2.921,-0.006,0.013,-0.021
217780,-9.625,-0.158,2.907,-0.006,0.013,-0.02
217883,-9.613,-0.158,2.94,-0.006,0.013,-0.021
217986,-9.613,-0.151,2.923,-0.006,0.012,-0.02
218089,-9.61,-0.163,2.914,-0.006,0.013,-0.021
218192,-9.615,-0.17,2.926,-0.006,0.013,-0.021
218295,-9.613,-0.158,2.923,-0.006,0.013,-0.02
218398,-9.613,-0.163,2.914,-0.006,0.013,-0.02
218501,-9.608,-0.16,2.921,-0.006,0.013,-0.02
218604,-9.606,-0.153,2.914,-0.006,0.013,-0.021
218707,-9.615,-0.172,2.926,-0.006,0.013,-0.02
218810,-9.613,-0.16,2.916,-0.006,0.013,-0.02
218913,-9.622,-0.158,2.921,-0.006,0.012,-0.02
219016,-9.618,-0.163,2.916,-0.006,0.013,-0.02
219119,-9.61,-0.165,2.914,-0.006,0.013,-0.02
219222,-9.618,-0.16,2.916,-0.006,0.013,-0.021
219325,-9.613,-0.163,2.914,-0.006,0.013,-0.021
219428,-9.615,-0.16,2.931,-0.006,0.013,-0.02
219531,-9.618,-0.175,2.931,-0.006,0.012,-0.021
219634,-9.606,-0.163,2.916,-0.006,0.012,-0.02
219737,-9.608,-0.16,2.923,-0.006,0.013,-0.021
219840,-9.622,-0.168,2.904,-0.006,0.013,-0.021
219943,-9.601,-0.156,2.904,-0.006,0.013,-0.02
220046,-9.613,-0.163,2.928,-0.006,0.013,-0.02
220149,-9.608,-0.168,2.933,-0.006,0.013,-0.021
220252,-9.61,-0.163,2.919,-0.006,0.013,-0.021
220355,-9.608,-0.165,2.914,-0.006,0.012,-0.02
220458,-9.613,-0.163,2.916,-0.006,0.012,-0.02
220561,-9.613,-0.158,2.919,-0.006,0.012,-0.02
220664,-9.627,-0.16,2.916,-0.006,0.012,-0.02
220767,-9.618,-0.16,2.921,-0.006,0.013,-0.021
220870,-9.61,-0.156,2.919,-0.006,0.013,-0.021
220973,-9.61,-0.17,2.928,-0.006,0.013,-0.02
221076,-9.61,-0.16,2.911,-0.006,0.013,-0.02
221179,-9.618,-0.163,2.923,-0.006,0.013,-0.02
221282,-9.608,-0.165,2.919,-0.006,0.013,-0.02
221385,-9.608,-0.16,2.909,-0.006,0.013,-0.021
221488,-9.618,-0.158,2.919,-0.006,0.013,-0.02
221591,-9.606,-0.163,2.921,-0.006,0.013,-0.02
221694,-9.613,-0.158,2.907,-0.006,0.013,-0.02
221797,-9.62,-0.172,2.923,-0.006,0.013,-0.02
221900,-9.615,-0.165,2.935,-0.006,0.013,-0.02
222003,-9.613,-0.175,2.921,-0.006,0.012,-0.02
222106,-9.606,-0.165,2.909,-0.006,0.013,-0.02
222209,-9.61,-0.168,2.926,-0.006,0.012,-0.02
222312,-9.608,-0.16,2.935,-0.006,0.013,-0.02
222415,-9.62,-0.165,2.926,-0.006,0.013,-0.02
222518,-9.615,-0.156,2.923,-0.006,0.013,-0.021
222621,-9.613,-0.156,2.914,-0.006,0.012,-0.021
222724,-9.615,-0.163,2.926,-0.006,0.012,-0.02
222827,-9.625,-0.168,2.909,-0.006,0.013,-0.02
222930,-9.61,-0.16,2.926,-0.006,0.012,-0.02
223033,-9.606,-0.163,2.921,-0.006,0.013,-0.02
223136,-9.618,-0.172,2.921,-0.007,0.013,-0.02
223239,-9.62,-0.158,2.909,-0.006,0.013,-0.021
223342,-9.613,-0.163,2.928,-0.006,0.013,-0.02
223445,-9.62,-0.163,2.926,-0.006,0.013,-0.021
223548,-9.62,-0.168,2.923,-0.006,0.013,-0.021
223651,-9.608,-0.156,2.923,-0.006,0.013,-0.02
223754,-9.608,-0.16,2.931,-0.006,0.012,-0.021
223857,-9.62,-0.163,2.926,-0.007,0.013,-0.02
223960,-9.606,-0.163,2.931,-0.006,0.013,-0.021
224063,-9.615,-0.163,2.923,-0.006,0.012,-0.021
224166,-9.608,-0.165,2.935,-0.006,0.013,-0.02
224269,-9.615,-0.165,2.931,-0.006,0.013,-0.021
224372,-9.608,-0.158,2.919,-0.006,0.013,-0.021
224475,-9.62,-0.158,2.916,-0.006,0.013,-0.02
224578,-9.613,-0.165,2.935,-0.006,0.013,-0.02
224681,-9.618,-0.158,2.926,-0.006,0.013,-0.02
224784,-9.615,-0.163,2.914,-0.006,0.013,-0.021
224887,-9.618,-0.163,2.919,-0.006,0.013,-0.021
224990,-9.613,-0.16,2.919,-0.006,0.013,-0.021
225093,-9.618,-0.163,2.928,-0.006,0.013,-0.021
225196,-9.615,-0.165,2.923,-0.006,0.013,-0.02
225299,-9.613,-0.163,2.921,-0.006,0.013,-0.021
225402,-9.613,-0.146,2.931,-0.006,0.012,-0.021
225505,-9.601,-0.158,2.923,-0.006,0.013,-0.02
225608,-9.618,-0.158,2.926,-0.006,0.013,-0.02
225711,-9.601,-0.165,2.916,-0.006,0.013,-0.021
225814,-9.601,-0.168,2.921,-0.006,0.013,-0.021
225917,-9.618,-0.158,2.914,-0.006,0.013,-0.021
226020,-9.613,-0.153,2.916,-0.006,0.013,-0.02
226123,-9.613,-0.158,2.926,-0.006,0.013,-0.02
226226,-9.61,-0.163,2.911,-0.006,0.012,-0.021
226329,-9.613,-0.165,2.909,-0.006,0.013,-0.02
226432,-9.615,-0.16,2.904,-0.006,0.013,-0.02
226535,-9.608,-0.165,2.931,-0.006,0.012,-0.021
226638,-9.61,-0.158,2.916,-0.006,0.013,-0.02
226741,-9.618,-0.16,2.916,-0.006,0.013,-0.02
226844,-9.615,-0.158,2.928,-0.006,0.013,-0.021
226947,-9.608,-0.163,2.916,-0.006,0.013,-0.02
227050,-9.622,-0.163,2.914,-0.006,0.013,-0.02
227153,-9.603,-0.165,2.919,-0.006,0.012,-0.02
227256,-9.603,-0.16,2.923,-0.006,0.013,-0.02
227359,-9.608,-0.165,2.904,-0.007,0.013,-0.021
227462,-9.61,-0.17,2.916,-0.006,0.013,-0.02
227565,-9.608,-0.158,2.911,-0.006,0.013,-0.02
227668,-9.613,-0.16,2.926,-0.006,0.012,-0.02
227771,-9.615,-0.158,2.916,-0.006,0.013,-0.02
227874,-9.606,-0.165,2.921,-0.006,0.013,-0.02
227977,-9.62,-0.163,2.914,-0.006,0.013,-0.021
228080,-9.622,-0.168,2.926,-0.006,0.013,-0.021
228183,-9.618,-0.163,2.928,-0.006,0.013,-0.02
228286,-9.613,-0.163,2.928,-0.006,0.013,-0.02
228389,-9.613,-0.168,2.931,-0.006,0.013,-0.021
228492,-9.615,-0.165,2.931,-0.006,0.013,-0.021
228595,-9.603,-0.163,2.921,-0.006,0.013,-0.02
228698,-9.627,-0.172,2.923,-0.006,0.013,-0.02
228801,-9.618,-0.17,2.916,-0.006,0.013,-0.02
228904,-9.618,-0.172,2.933,-0.006,0.013,-0.02
229007,-9.618,-0.16,2.921,-0.006,0.012,-0.021
229110,-9.618,-0.163,2.923,-0.006,0.013,-0.02
229213,-9.61,-0.16,2.935,-0.006,0.013,-0.021
229316,-9.618,-0.163,2.909,-0.006,0.013,-0.021
229419,-9.615,-0.16,2.909,-0.006,0.012,-0.02
229522,-9.608,-0.168,2.923,-0.006,0.013,-0.021
229625,-9.615,-0.165,2.935,-0.006,0.013,-0.02
229728,-9.606,-0.16,2.928,-0.006,0.013,-0.021
229831,-9.608,-0.165,2.916,-0.006,0.013,-0.021
229934,-9.62,-0.158,2.931,-0.006,0.013,-0.02
230037,-9.613,-0.156,2.904,-0.007,0.012,-0.021
230140,-9.603,-0.168,2.909,-0.006,0.012,-0.02
230243,-9.606,-0.17,2.911,-0.006,0.013,-0.021
230346,-9.622,-0.163,2.914,-0.006,0.013,-0.021
230449,-9.61,-0.16,2.923,-0.006,0.013,-0.021
230552,-9.61,-0.165,2.921,-0.006,0.013,-0.02
230655,-9.603,-0.151,2.914,-0.006,0.013,-0.02
230758,-9.618,-0.163,2.923,-0.006,0.013,-0.021
230861,-9.613,-0.163,2.931,-0.006,0.012,-0.021
230964,-9.615,-0.168,2.931,-0.006,0.013,-0.02
231067,-9.61,-0.168,2.904,-0.006,0.013,-0.02
231170,-9.618,-0.165,2.921,-0.006,0.013,-0.02
231273,-9.618,-0.163,2.933,-0.006,0.013,-0.02
231376,-9.615,-0.163,2.926,-0.006,0.012,-0.021
231479,-9.613,-0.17,2.919,-0.006,0.013,-0.021
231582,-9.61,-0.16,2.921,-0.006,0.013,-0.021
231685,-9.608,-0.165,2.923,-0.006,0.013,-0.021
231788,-9.613,-0.17,2.921,-0.006,0.012,-0.02
231891,-9.61,-0.151,2.916,-0.006,0.013,-0.021
231994,-9.608,-0.156,2.926,-0.006,0.012,-0.02
232097,-9.613,-0.16,2.928,-0.006,0.013,-0.021
232200,-9.608,-0.158,2.923,-0.006,0.013,-0.021
232303,-9.615,-0.165,2.914,-0.006,0.013,-0.02
232406,-9.613,-0.168,2.919,-0.006,0.013,-0.021
232509,-9.61,-0.165,2.935,-0.006,0.013,-0.02
232612,-9.613,-0.168,2.921,-0.006,0.013,-0.02
232715,-9.615,-0.165,2.923,-0.006,0.013,-0.02
232818,-9.608,-0.158,2.926,-0.006,0.013,-0.02
232921,-9.615,-0.156,2.928,-0.006,0.013,-0.02
233024,-9.613,-0.158,2.935,-0.006,0.013,-0.02
233127,-9.608,-0.16,2.933,-0.006,0.013,-0.021
233230,-9.62,-0.163,2.926,-0.006,0.012,-0.021
233333,-9.618,-0.165,2.923,-0.006,0.013,-0.02
233436,-9.61,-0.16,2.916,-0.006,0.013,-0.02
233539,-9.596,-0.168,2.921,-0.006,0.013,-0.02
233642,-9.61,-0.16,2.928,-0.007,0.013,-0.02
233745,-9.61,-0.153,2.926,-0.006,0.012,-0.02
233848,-9.618,-0.177,2.926,-0.006,0.012,-0.021
233951,-9.613,-0.158,2.921,-0.006,0.013,-0.02
234054,-9.615,-0.153,2.916,-0.006,0.013,-0.02
234157,-9.594,-0.165,2.916,-0.006,0.013,-0.021
234260,-9.606,-0.168,2.919,-0.006,0.013,-0.02
234363,-9.608,-0.168,2.931,-0.006,0.013,-0.021
234466,-9.613,-0.168,2.931,-0.006,0.013,-0.02
234569,-9.606,-0.151,2.919,-0.006,0.013,-0.02
234672,-9.629,-0.158,2.911,-0.006,0.013,-0.02
234775,-9.61,-0.16,2.911,-0.006,0.013,-0.02
234878,-9.615,-0.165,2.923,-0.006,0.012,-0.02
234981,-9.618,-0.16,2.919,-0.006,0.013,-0.02
235084,-9.606,-0.163,2.919,-0.006,0.013,-0.02
235187,-9.613,-0.168,2.919,-0.006,0.013,-0.02
235290,-9.61,-0.158,2.921,-0.006,0.013,-0.02
235393,-9.613,-0.153,2.916,-0.006,0.013,-0.02
235496,-9.618,-0.158,2.926,-0.006,0.013,-0.021
235599,-9.608,-0.172,2.933,-0.006,0.013,-0.021
235702,-9.606,-0.163,2.931,-0.006,0.013,-0.02
235805,-9.613,-0.17,2.919,-0.006,0.013,-0.021
235908,-9.613,-0.168,2.907,-0.006,0.013,-0.02
236011,-9.625,-0.165,2.904,-0.006,0.013,-0.02
236114,-9.613,-0.165,2.911,-0.006,0.013,-0.02
236217,-9.615,-0.16,2.914,-0.006,0.013,-0.02
236320,-9.608,-0.156,2.923,-0.006,0.013,-0.02
236423,-9.615,-0.165,2.919,-0.006,0.013,-0.02
236526,-9.615,-0.163,2.933,-0.006,0.013,-0.021
236629,-9.61,-0.156,2.931,-0.006,0.013,-0.021
236732,-9.61,-0.163,2.907,-0.006,0.013,-0.02
236835,-9.615,-0.168,2.914,-0.006,0.013,-0.02
236938,-9.622,-0.16,2.919,-0.006,0.013,-0.021
237041,-9.598,-0.156,2.919,-0.006,0.013,-0.02
237144,-9.608,-0.151,2.923,-0.006,0.013,-0.02
237247,-9.615,-0.16,2.933,-0.006,0.013,-0.02
237350,-9.603,-0.16,2.923,-0.006,0.013,-0.021
237453,-9.613,-0.17,2.931,-0.006,0.013,-0.021
237556,-9.615,-0.153,2.935,-0.006,0.013,-0.021
237659,-9.615,-0.158,2.935,-0.006,0.013,-0.021
237762,-9.613,-0.158,2.919,-0.006,0.013,-0.021
237865,-9.606,-0.156,2.928,-0.006,0.013,-0.021
237968,-9.615,-0.16,2.916,-0.006,0.013,-0.02
238071,-9.613,-0.156,2.921,-0.006,0.013,-0.02
238174,-9.615,-0.158,2.931,-0.006,0.013,-0.021
238277,-9.61,-0.165,2.923,-0.006,0.013,-0.02
238380,-9.62,-0.165,2.921,-0.006,0.013,-0.02
238483,-9.61,-0.16,2.921,-0.006,0.013,-0.02
238586,-9.61,-0.158,2.921,-0.006,0.013,-0.02
238689,-9.606,-0.163,2.931,-0.006,0.013,-0.02
238792,-9.618,-0.158,2.914,-0.006,0.013,-0.021
238895,-9.608,-0.158,2.914,-0.006,0.013,-0.021
238998,-9.618,-0.16,2.916,-0.006,0.013,-0.02
239101,-9.606,-0.165,2.904,-0.006,0.013,-0.021
239204,-9.615,-0.156,2.914,-0.006,0.013,-0.02
239307,-9.608,-0.16,2.904,-0.006,0.013,-0.02
239410,-9.625,-0.156,2.902,-0.006,0.013,-0.02
239513,-9.61,-0.163,2.914,-0.006,0.013,-0.02
239616,-9.61,-0.16,2.921,-0.006,0.013,-0.021
239719,-9.613,-0.163,2.921,-0.006,0.013,-0.021
239822,-9.61,-0.165,2.914,-0.006,0.013,-0.02
239925,-9.615,-0.153,2.926,-0.007,0.012,-0.02
240028,-9.618,-0.158,2.919,-0.006,0.013,-0.021
240131,-9.61,-0.165,2.923,-0.006,0.013,-0.02
240234,-9.608,-0.158,2.931,-0.006,0.012,-0.021
240337,-9.606,-0.158,2.935,-0.006,0.013,-0.02
240440,-9.615,-0.156,2.914,-0.006,0.012,-0.02
240543,-9.615,-0.16,2.926,-0.006,0.013,-0.021
240646,-9.601,-0.168,2.914,-0.006,0.013,-0.02
240749,-9.613,-0.153,2.933,-0.007,0.013,-0.021
240852,-9.618,-0.165,2.923,-0.006,0.013,-0.02
240955,-9.618,-0.16,2.916,-0.006,0.013,-0.021
241058,-9.608,-0.163,2.947,-0.006,0.013,-0.02
241161,-9.615,-0.168,2.911,-0.006,0.013,-0.02
241264,-9.615,-0.168,2.919,-0.006,0.013,-0.021
241367,-9.622,-0.165,2.931,-0.006,0.013,-0.021
241470,-9.618,-0.158,2.926,-0.007,0.012,-0.02
241573,-9.615,-0.158,2.916,-0.006,0.013,-0.02
241676,-9.618,-0.168,2.919,-0.006,0.013,-0.02
241779,-9.606,-0.163,2.907,-0.006,0.013,-0.02
241882,-9.613,-0.156,2.926,-0.006,0.012,-0.02
241985,-9.615,-0.165,2.919,-0.006,0.013,-0.021
242088,-9.62,-0.158,2.921,-0.006,0.013,-0.02
242191,-9.608,-0.168,2.933,-0.006,0.013,-0.021
242294,-9.622,-0.163,2.909,-0.006,0.013,-0.02
242397,-9.61,-0.163,2.919,-0.006,0.013,-0.02
242500,-9.613,-0.156,2.931,-0.006,0.013,-0.02
242603,-9.613,-0.168,2.935,-0.006,0.013,-0.02
242706,-9.613,-0.153,2.94,-0.006,0.013,-0.02
242809,-9.615,-0.165,2.931,-0.006,0.013,-0.02
242912,-9.622,-0.158,2.926,-0.006,0.013,-0.02
243015,-9.608,-0.17,2.919,-0.006,0.013,-0.02
243118,-9.618,-0.163,2.914,-0.006,0.012,-0.02
243221,-9.615,-0.151,2.931,-0.006,0.013,-0.02
243324,-9.62,-0.16,2.923,-0.006,0.012,-0.02
243427,-9.613,-0.163,2.919,-0.006,0.012,-0.021
243530,-9.622,-0.163,2.928,-0.006,0.013,-0.02
243633,-9.613,-0.163,2.923,-0.006,0.012,-0.02
243736,-9.615,-0.153,2.921,-0.006,0.013,-0.02
243839,-9.606,-0.158,2.923,-0.006,0.013,-0.021
243942,-9.615,-0.165,2.923,-0.007,0.013,-0.02
244045,-9.613,-0.16,2.919,-0.006,0.013,-0.02
244148,-9.613,-0.163,2.904,-0.006,0.013,-0.021
244251,-9.613,-0.168,2.919,-0.006,0.013,-0.02
244354,-9.608,-0.16,2.919,-0.006,0.013,-0.021
244457,-9.613,-0.168,2.923,-0.006,0.013,-0.021
244560,-9.603,-0.165,2.923,-0.006,0.013,-0.021
244663,-9.608,-0.168,2.923,-0.006,0.013,-0.02
244766,-9.618,-0.158,2.919,-0.006,0.013,-0.02
244869,-9.608,-0.165,2.921,-0.006,0.012,-0.021
244972,-9.608,-0.165,2.914,-0.006,0.013,-0.021
245075,-9.618,-0.156,2.935,-0.006,0.013,-0.02
245178,-9.615,-0.151,2.928,-0.006,0.013,-0.02
245281,-9.618,-0.168,2.916,-0.006,0.013,-0.021
245384,-9.615,-0.16,2.931,-0.006,0.013,-0.02
245487,-9.618,-0.16,2.923,-0.006,0.013,-0.02
245590,-9.618,-0.163,2.921,-0.006,0.013,-0.02
245693,-9.615,-0.158,2.926,-0.006,0.013,-0.021
245796,-9.62,-0.153,2.923,-0.006,0.013,-0.02
245899,-9.613,-0.158,2.909,-0.006,0.013,-0.02
246002,-9.613,-0.163,2.909,-0.006,0.013,-0.02
246105,-9.618,-0.153,2.926,-0.007,0.012,-0.021
246208,-9.613,-0.163,2.919,-0.006,0.013,-0.02
246311,-9.613,-0.163,2.923,-0.006,0.013,-0.021
246414,-9.613,-0.158,2.921,-0.006,0.013,-0.021
246517,-9.615,-0.168,2.914,-0.006,0.013,-0.02
246620,-9.62,-0.163,2.923,-0.006,0.013,-0.02
246723,-9.613,-0.163,2.916,-0.006,0.012,-0.021
246826,-9.62,-0.163,2.921,-0.006,0.013,-0.021
246929,-9.61,-0.153,2.928,-0.006,0.013,-0.021
247032,-9.61,-0.16,2.907,-0.006,0.013,-0.021
247135,-9.622,-0.156,2.931,-0.006,0.012,-0.021
247238,-9.618,-0.156,2.926,-0.006,0.013,-0.021
247341,-9.618,-0.165,2.921,-0.006,0.012,-0.02
247444,-9.613,-0.17,2.926,-0.006,0.013,-0.02
247547,-9.61,-0.16,2.926,-0.006,0.013,-0.02
247650,-9.618,-0.168,2.914,-0.006,0.013,-0.02
247753,-9.613,-0.16,2.935,-0.006,0.013,-0.02
247856,-9.618,-0.163,2.923,-0.006,0.013,-0.02
247959,-9.603,-0.16,2.931,-0.006,0.013,-0.02
248062,-9.613,-0.16,2.926,-0.006,0.013,-0.02
248165,-9.613,-0.163,2.911,-0.006,0.013,-0.02
248268,-9.613,-0.16,2.926,-0.007,0.013,-0.021
248371,-9.608,-0.163,2.921,-0.006,0.013,-0.021
248474,-9.613,-0.165,2.914,-0.006,0.012,-0.02
248577,-9.618,-0.165,2.921,-0.006,0.013,-0.02
248680,-9.615,-0.17,2.928,-0.006,0.012,-0.02
248783,-9.61,-0.172,2.916,-0.006,0.013,-0.02
248886,-9.603,-0.158,2.919,-0.006,0.013,-0.02
248989,-9.615,-0.156,2.916,-0.006,0.013,-0.02
249092,-9.61,-0.163,2.914,-0.006,0.013,-0.02
249195,-9.618,-0.16,2.935,-0.006,0.013,-0.021
249298,-9.618,-0.175,2.928,-0.006,0.013,-0.021
249401,-9.618,-0.163,2.911,-0.006,0.013,-0.02
249504,-9.62,-0.168,2.935,-0.006,0.013,-0.02
249607,-9.613,-0.163,2.928,-0.006,0.013,-0.02
249710,-9.615,-0.158,2.926,-0.006,0.013,-0.02
249813,-9.61,-0.165,2.928,-0.006,0.013,-0.02
249916,-9.613,-0.158,2.928,-0.006,0.013,-0.02
250019,-9.613,-0.163,2.926,-0.007,0.013,-0.021
250122,-9.615,-0.163,2.914,-0.006,0.013,-0.02
250225,-9.601,-0.16,2.928,-0.006,0.013,-0.02
250328,-9.615,-0.156,2.921,-0.006,0.013,-0.021
250431,-9.625,-0.16,2.914,-0.006,0.012,-0.02
250534,-9.608,-0.151,2.914,-0.006,0.013,-0.02
250637,-9.61,-0.158,2.907,-0.006,0.013,-0.02
250740,-9.61,-0.156,2.928,-0.006,0.013,-0.02
250843,-9.603,-0.156,2.909,-0.006,0.013,-0.02
250946,-9.613,-0.165,2.911,-0.005,0.013,-0.02
251049,-9.615,-0.156,2.931,-0.006,0.013,-0.021
251152,-9.62,-0.158,2.923,-0.006,0.013,-0.021
251255,-9.618,-0.168,2.921,-0.006,0.013,-0.02
251358,-9.598,-0.16,2.904,-0.006,0.013,-0.02
251461,-9.606,-0.165,2.933,-0.006,0.013,-0.02
251564,-9.615,-0.165,2.931,-0.006,0.013,-0.02
251667,-9.615,-0.158,2.919,-0.006,0.013,-0.021
251770,-9.62,-0.168,2.921,-0.006,0.013,-0.02
251873,-9.615,-0.163,2.923,-0.006,0.013,-0.02
251976,-9.613,-0.16,2.911,-0.006,0.013,-0.021
252079,-9.606,-0.156,2.923,-0.006,0.013,-0.021
252182,-9.608,-0.156,2.923,-0.006,0.013,-0.02
252285,-9.61,-0.156,2.919,-0.006,0.013,-0.021
252388,-9.606,-0.165,2.919,-0.006,0.013,-0.021
252491,-9.618,-0.163,2.919,-0.006,0.013,-0.02
252594,-9.62,-0.158,2.933,-0.006,0.013,-0.02
252697,-9.618,-0.151,2.921,-0.006,0.013,-0.021
252800,-9.613,-0.16,2.933,-0.006,0.013,-0.02
252903,-9.613,-0.158,2.928,-0.006,0.013,-0.02
253006,-9.613,-0.163,2.921,-0.006,0.013,-0.02
253109,-9.613,-0.158,2.926,-0.006,0.013,-0.02
253212,-9.615,-0.158,2.916,-0.006,0.013,-0.021
253315,-9.61,-0.158,2.919,-0.007,0.013,-0.021
253418,-9.622,-0.163,2.926,-0.006,0.013,-0.02
253521,-9.618,-0.163,2.916,-0.006,0.013,-0.021
253624,-9.608,-0.16,2.926,-0.006,0.013,-0.021
253727,-9.608,-0.158,2.919,-0.006,0.013,-0.021
253830,-9.618,-0.163,2.904,-0.006,0.013,-0.021
253933,-9.618,-0.17,2.904,-0.006,0.013,-0.021
254036,-9.61,-0.168,2.921,-0.006,0.013,-0.02
254139,-9.606,-0.153,2.921,-0.006,0.013,-0.02
254242,-9.603,-0.156,2.926,-0.006,0.013,-0.02
254345,-9.625,-0.165,2.919,-0.006,0.013,-0.02
254448,-9.61,-0.151,2.935,-0.006,0.013,-0.021
254551,-9.62,-0.16,2.928,-0.006,0.012,-0.021
254654,-9.615,-0.16,2.935,-0.006,0.013,-0.02
254757,-9.615,-0.151,2.919,-0.006,0.013,-0.02
254860,-9.615,-0.165,2.909,-0.006,0.013,-0.021
254963,-9.608,-0.144,2.926,-0.006,0.013,-0.021
255066,-9.61,-0.158,2.919,-0.006,0.013,-0.02
255169,-9.618,-0.16,2.938,-0.006,0.012,-0.021
255272,-9.62,-0.163,2.94,-0.006,0.013,-0.021
255375,-9.618,-0.158,2.931,-0.006,0.012,-0.02
255478,-9.606,-0.156,2.914,-0.006,0.013,-0.02
255581,-9.61,-0.158,2.916,-0.006,0.013,-0.021
255684,-9.608,-0.163,2.926,-0.006,0.012,-0.02
255787,-9.618,-0.165,2.914,-0.006,0.013,-0.02
255890,-9.615,-0.163,2.923,-0.006,0.013,-0.021
255993,-9.618,-0.16,2.919,-0.006,0.012,-0.02
256096,-9.61,-0.165,2.911,-0.006,0.013,-0.02
256199,-9.615,-0.151,2.919,-0.006,0.012,-0.021
256302,-9.615,-0.168,2.926,-0.006,0.013,-0.02
256405,-9.615,-0.151,2.926,-0.006,0.013,-0.02
256508,-9.615,-0.158,2.933,-0.006,0.013,-0.021
256611,-9.61,-0.165,2.923,-0.006,0.013,-0.021
256714,-9.62,-0.163,2.919,-0.006,0.013,-0.021
256817,-9.618,-0.165,2.923,-0.006,0.013,-0.02
256920,-9.618,-0.156,2.928,-0.006,0.013,-0.021
257023,-9.613,-0.163,2.921,-0.006,0.013,-0.021
257126,-9.615,-0.165,2.916,-0.006,0.013,-0.021
257229,-9.618,-0.16,2.923,-0.006,0.013,-0.021
257332,-9.625,-0.165,2.923,-0.006,0.013,-0.02
257435,-9.618,-0.148,2.935,-0.007,0.013,-0.02
257538,-9.627,-0.163,2.911,-0.006,0.013,-0.021
257641,-9.618,-0.168,2.919,-0.006,0.012,-0.02
257744,-9.62,-0.158,2.933,-0.006,0.013,-0.02
257847,-9.61,-0.158,2.935,-0.006,0.013,-0.02
257950,-9.603,-0.16,2.921,-0.006,0.013,-0.021
258053,-9.608,-0.156,2.942,-0.006,0.013,-0.02
258156,-9.625,-0.16,2.933,-0.006,0.013,-0.021
258259,-9.625,-0.16,2.909,-0.006,0.013,-0.02
258362,-9.61,-0.16,2.933,-0.006,0.013,-0.02
258465,-9.613,-0.158,2.921,-0.006,0.013,-0.02
258568,-9.618,-0.165,2.921,-0.006,0.013,-0.021
258671,-9.627,-0.175,2.931,-0.006,0.012,-0.02
258774,-9.618,-0.163,2.919,-0.006,0.013,-0.02
258877,-9.618,-0.163,2.923,-0.006,0.012,-0.02
258980,-9.62,-0.163,2.921,-0.006,0.012,-0.021
259083,-9.613,-0.163,2.916,-0.006,0.013,-0.02
259186,-9.603,-0.163,2.926,-0.006,0.013,-0.021
259289,-9.606,-0.158,2.926,-0.006,0.013,-0.021
259392,-9.61,-0.175,2.916,-0.006,0.013,-0.02
259495,-9.613,-0.158,2.916,-0.006,0.013,-0.02
259598,-9.615,-0.156,2.909,-0.006,0.013,-0.02
259701,-9.61,-0.17,2.911,-0.006,0.013,-0.02
259804,-9.61,-0.156,2.931,-0.006,0.013,-0.02
259907,-9.615,-0.156,2.933,-0.006,0.013,-0.02
260010,-9.61,-0.163,2.909,-0.006,0.013,-0.021
260113,-9.606,-0.163,2.916,-0.006,0.013,-0.021
260216,-9.622,-0.16,2.919,-0.006,0.013,-0.021
260319,-9.606,-0.158,2.928,-0.006,0.013,-0.02
260422,-9.61,-0.165,2.914,-0.006,0.013,-0.02
260525,-9.61,-0.16,2.911,-0.006,0.013,-0.021
260628,-9.613,-0.16,2.914,-0.007,0.013,-0.02
260731,-9.618,-0.16,2.911,-0.006,0.013,-0.02
260834,-9.618,-0.172,2.928,-0.006,0.013,-0.02
260937,-9.613,-0.16,2.921,-0.006,0.013,-0.021
261040,-9.615,-0.163,2.921,-0.006,0.013,-0.021
261143,-9.615,-0.163,2.926,-0.006,0.012,-0.021
261246,-9.613,-0.151,2.926,-0.006,0.013,-0.02
261349,-9.618,-0.158,2.919,-0.006,0.013,-0.021
261452,-9.606,-0.163,2.921,-0.006,0.013,-0.02
261555,-9.61,-0.165,2.935,-0.006,0.012,-0.02
261658,-9.606,-0.17,2.921,-0.006,0.013,-0.02
261761,-9.61,-0.156,2.921,-0.006,0.012,-0.02
261864,-9.615,-0.17,2.931,-0.006,0.013,-0.02
261967,-9.615,-0.163,2.926,-0.006,0.013,-0.021
262070,-9.613,-0.168,2.923,-0.006,0.013,-0.021
262173,-9.613,-0.17,2.914,-0.006,0.013,-0.02
262276,-9.622,-0.163,2.923,-0.006,0.013,-0.02
262379,-9.613,-0.168,2.933,-0.006,0.013,-0.021
262482,-9.613,-0.163,2.904,-0.006,0.013,-0.02
262585,-9.615,-0.158,2.923,-0.006,0.013,-0.02
262688,-9.618,-0.165,2.938,-0.006,0.013,-0.02
262791,-9.61,-0.158,2.919,-0.006,0.013,-0.02
262894,-9.608,-0.16,2.914,-0.006,0.013,-0.02
262997,-9.613,-0.16,2.909,-0.006,0.013,-0.02
263100,-9.601,-0.156,2.923,-0.006,0.013,-0.02
263203,-9.613,-0.165,2.921,-0.006,0.013,-0.021
263306,-9.608,-0.165,2.916,-0.006,0.013,-0.021
263409,-9.615,-0.156,2.938,-0.006,0.013,-0.02
263512,-9.618,-0.153,2.919,-0.006,0.013,-0.02
263615,-9.613,-0.153,2.923,-0.006,0.013,-0.02
263718,-9.606,-0.16,2.909,-0.006,0.013,-0.02
263821,-9.613,-0.17,2.907,-0.006,0.013,-0.02
263924,-9.608,-0.156,2.911,-0.006,0.013,-0.021
264027,-9.622,-0.165,2.921,-0.006,0.013,-0.021
264130,-9.618,-0.16,2.914,-0.006,0.013,-0.02
264233,-9.61,-0.156,2.933,-0.007,0.013,-0.02
264336,-9.601,-0.165,2.933,-0.006,0.013,-0.02
264439,-9.615,-0.158,2.921,-0.006,0.013,-0.02
264542,-9.62,-0.158,2.928,-0.006,0.013,-0.02
264645,-9.613,-0.17,2.914,-0.006,0.012,-0.021
264748,-9.62,-0.156,2.907,-0.006,0.013,-0.021
264851,-9.615,-0.156,2.928,-0.006,0.013,-0.02
264954,-9.618,-0.163,2.923,-0.006,0.013,-0.02
265057,-9.618,-0.165,2.931,-0.006,0.013,-0.021
265160,-9.608,-0.163,2.914,-0.006,0.013,-0.021
265263,-9.603,-0.163,2.923,-0.006,0.013,-0.02
265366,-9.618,-0.156,2.923,-0.006,0.013,-0.02
265469,-9.61,-0.156,2.919,-0.006,0.013,-0.02
265572,-9.618,-0.163,2.916,-0.006,0.013,-0.02
265675,-9.625,-0.156,2.911,-0.006,0.013,-0.021
265778,-9.615,-0.16,2.916,-0.006,0.013,-0.021
265881,-9.608,-0.158,2.928,-0.006,0.012,-0.021
265984,-9.61,-0.16,2.928,-0.006,0.013,-0.021
266087,-9.622,-0.16,2.921,-0.006,0.013,-0.02
266190,-9.62,-0.156,2.928,-0.007,0.013,-0.021
266293,-9.62,-0.153,2.926,-0.006,0.013,-0.021
266396,-9.613,-0.16,2.931,-0.006,0.013,-0.02
266499,-9.608,-0.158,2.916,-0.006,0.013,-0.021
266602,-9.613,-0.156,2.919,-0.006,0.013,-0.021
266705,-9.608,-0.175,2.919,-0.006,0.012,-0.02
266808,-9.618,-0.168,2.926,-0.006,0.013,-0.021
266911,-9.622,-0.16,2.926,-0.006,0.013,-0.021
267014,-9.618,-0.158,2.914,-0.006,0.013,-0.02
267117,-9.606,-0.163,2.914,-0.006,0.013,-0.021
267220,-9.603,-0.168,2.931,-0.006,0.012,-0.02
267323,-9.61,-0.163,2.919,-0.006,0.013,-0.021
267426,-9.606,-0.16,2.926,-0.006,0.013,-0.021
267529,-9.608,-0.165,2.928,-0.006,0.013,-0.021
267632,-9.613,-0.158,2.914,-0.006,0.013,-0.021
267735,-9.618,-0.16,2.923,-0.006,0.013,-0.02
267838,-9.613,-0.163,2.919,-0.006,0.013,-0.02
267941,-9.613,-0.158,2.926,-0.006,0.013,-0.02
268044,-9.613,-0.163,2.909,-0.006,0.013,-0.02
268147,-9.615,-0.16,2.931,-0.006,0.013,-0.02
268250,-9.608,-0.165,2.919,-0.006,0.013,-0.021
268353,-9.618,-0.165,2.921,-0.006,0.013,-0.021
268456,-9.615,-0.17,2.916,-0.006,0.013,-0.02
268559,-9.615,-0.16,2.933,-0.006,0.013,-0.021
268662,-9.61,-0.151,2.928,-0.006,0.013,-0.02
268765,-9.61,-0.16,2.909,-0.006,0.013,-0.02
268868,-9.608,-0.163,2.923,-0.006,0.013,-0.021
268971,-9.601,-0.156,2.907,-0.006,0.012,-0.021
269074,-9.606,-0.156,2.911,-0.006,0.013,-0.02
269177,-9.615,-0.163,2.933,-0.006,0.012,-0.02
269280,-9.62,-0.163,2.916,-0.006,0.012,-0.021
