time (ms),acceleration x,acceleration y,acceleration z,gyro x,gyro y,gyro z
656,9.689,-0.098,0.781,-0.007,0.008,0.011
759,9.699,-0.093,0.781,-0.007,0.007,0.012
862,9.699,-0.086,0.781,-0.007,0.007,0.012
965,9.697,-0.084,0.792,-0.008,0.007,0.012
1068,9.687,-0.105,0.759,-0.008,0.007,0.011
1171,9.699,-0.089,0.785,-0.007,0.008,0.013
1274,9.694,-0.091,0.807,-0.008,0.008,0.013
1377,9.687,-0.084,0.778,-0.008,0.007,0.012
1480,9.694,-0.093,0.797,-0.007,0.007,0.012
1583,9.685,-0.098,0.8,-0.008,0.007,0.012
1686,9.697,-0.096,0.778,-0.007,0.007,0.012
1789,9.697,-0.089,0.773,-0.008,0.007,0.012
1892,9.687,-0.098,0.792,-0.007,0.007,0.011
1995,9.677,-0.096,0.761,-0.008,0.007,0.012
2098,9.692,-0.086,0.778,-0.007,0.007,0.013
2201,9.685,-0.093,0.778,-0.007,0.008,0.012
2304,9.692,-0.089,0.771,-0.007,0.007,0.012
2407,9.692,-0.103,0.795,-0.007,0.007,0.012
2510,9.685,-0.086,0.781,-0.007,0.008,0.012
2613,9.701,-0.079,0.792,-0.007,0.008,0.011
2716,9.689,-0.081,0.742,-0.009,0.007,0.013
2819,9.68,-0.144,0.812,-0.006,0.008,0.01
2922,9.699,-0.086,0.788,-0.007,0.007,0.012
3025,9.682,-0.098,0.766,-0.007,0.007,0.012
3128,9.694,-0.093,0.781,-0.007,0.008,0.011
3231,9.692,-0.086,0.776,-0.007,0.007,0.012
3334,9.685,-0.096,0.766,-0.008,0.008,0.012
3437,9.692,-0.081,0.776,-0.007,0.008,0.011
3540,9.687,-0.096,0.781,-0.007,0.007,0.012
3643,9.682,-0.101,0.776,-0.007,0.008,0.012
3746,9.697,-0.089,0.776,-0.007,0.008,0.011
3849,9.694,-0.103,0.773,-0.007,0.008,0.012
3952,9.682,-0.091,0.778,-0.007,0.007,0.012
4055,9.699,-0.091,0.769,-0.007,0.007,0.012
4158,9.685,-0.103,0.769,-0.007,0.007,0.012
4261,9.692,-0.089,0.776,-0.007,0.008,0.012
4364,9.694,-0.089,0.769,-0.007,0.007,0.012
4467,9.692,-0.101,0.8,-0.007,0.007,0.012
4570,9.701,-0.093,0.776,-0.007,0.007,0.012
4673,9.685,-0.098,0.781,-0.007,0.007,0.012
4776,9.689,-0.093,0.769,-0.007,0.007,0.013
4879,9.687,-0.098,0.776,-0.007,0.007,0.012
4982,9.685,-0.105,0.79,-0.008,0.007,0.012
5085,9.685,-0.081,0.776,-0.007,0.008,0.011
5188,9.694,-0.086,0.781,-0.007,0.008,0.012
5291,9.701,-0.091,0.785,-0.008,0.007,0.011
5394,9.697,-0.091,0.773,-0.007,0.007,0.012
5497,9.694,-0.091,0.766,-0.007,0.007,0.012
5600,9.677,-0.093,0.79,-0.008,0.007,0.012
5703,9.697,-0.089,0.788,-0.007,0.008,0.012
5806,9.694,-0.093,0.788,-0.007,0.007,0.012
5909,9.697,-0.091,0.773,-0.007,0.007,0.013
6012,9.701,-0.091,0.785,-0.007,0.007,0.012
6115,9.694,-0.103,0.771,-0.007,0.007,0.012
6218,9.692,-0.086,0.785,-0.007,0.008,0.012
6321,9.699,-0.098,0.773,-0.007,0.007,0.012
6424,9.694,-0.098,0.788,-0.007,0.007,0.011
6527,9.699,-0.089,0.783,-0.007,0.007,0.012
6630,9.692,-0.093,0.795,-0.008,0.008,0.012
6733,9.685,-0.096,0.778,-0.008,0.007,0.012
6836,9.697,-0.086,0.769,-0.007,0.008,0.012
6939,9.689,-0.101,0.792,-0.007,0.007,0.012
7042,9.699,-0.089,0.785,-0.007,0.007,0.013
7145,9.699,-0.086,0.776,-0.007,0.008,0.012
7248,9.689,-0.098,0.783,-0.007,0.007,0.012
7351,9.692,-0.091,0.778,-0.007,0.007,0.012
7454,9.689,-0.089,0.778,-0.008,0.007,0.012
7557,9.689,-0.084,0.771,-0.007,0.007,0.012
7660,9.699,-0.093,0.795,-0.007,0.008,0.011
7763,9.699,-0.091,0.79,-0.008,0.007,0.012
7866,9.687,-0.103,0.781,-0.008,0.007,0.012
7969,9.699,-0.091,0.788,-0.008,0.007,0.012
8072,9.685,-0.105,0.778,-0.007,0.008,0.013
8175,9.68,-0.089,0.788,-0.007,0.007,0.012
8278,9.689,-0.096,0.792,-0.007,0.007,0.013
8381,9.697,-0.096,0.769,-0.008,0.008,0.012
8484,9.699,-0.084,0.781,-0.007,0.008,0.012
8587,9.689,-0.086,0.792,-0.007,0.007,0.012
8690,9.694,-0.096,0.769,-0.007,0.008,0.012
8793,9.689,-0.081,0.776,-0.008,0.007,0.012
8896,9.689,-0.098,0.781,-0.007,0.007,0.012
8999,9.689,-0.096,0.781,-0.008,0.007,0.012
9102,9.692,-0.093,0.778,-0.008,0.007,0.012
9205,9.689,-0.089,0.773,-0.007,0.007,0.012
9308,9.689,-0.103,0.771,-0.007,0.007,0.012
9411,9.697,-0.093,0.788,-0.007,0.007,0.012
9514,9.682,-0.089,0.757,-0.007,0.007,0.012
9617,9.694,-0.091,0.776,-0.007,0.007,0.012
9720,9.697,-0.096,0.781,-0.008,0.007,0.012
9823,9.692,-0.093,0.795,-0.008,0.008,0.012
9926,9.692,-0.093,0.785,-0.007,0.007,0.012
10029,9.687,-0.091,0.788,-0.007,0.007,0.012
10132,9.687,-0.098,0.778,-0.007,0.008,0.012
10235,9.685,-0.091,0.783,-0.007,0.007,0.011
10338,9.699,-0.101,0.778,-0.007,0.007,0.012
10441,9.687,-0.091,0.783,-0.007,0.007,0.012
10544,9.697,-0.093,0.781,-0.008,0.007,0.012
10647,9.689,-0.093,0.783,-0.008,0.007,0.012
10750,9.694,-0.091,0.764,-0.007,0.007,0.012
10853,9.697,-0.096,0.783,-0.007,0.007,0.012
10956,9.699,-0.091,0.778,-0.007,0.008,0.011
11059,9.692,-0.098,0.783,-0.007,0.007,0.011
11162,9.692,-0.103,0.778,-0.008,0.007,0.011
11265,9.687,-0.093,0.781,-0.007,0.007,0.011
11368,9.694,-0.084,0.788,-0.007,0.007,0.012
11471,9.687,-0.105,0.792,-0.007,0.008,0.013
11574,9.692,-0.091,0.807,-0.007,0.007,0.012
11677,9.692,-0.084,0.773,-0.007,0.007,0.012
11780,9.682,-0.093,0.771,-0.008,0.007,0.011
11883,9.701,-0.091,0.773,-0.007,0.008,0.012
11986,9.687,-0.101,0.792,-0.008,0.008,0.012
12089,9.692,-0.091,0.783,-0.008,0.007,0.012
12192,9.697,-0.093,0.776,-0.007,0.008,0.012
12295,9.694,-0.098,0.773,-0.007,0.007,0.012
12398,9.701,-0.089,0.773,-0.008,0.007,0.012
12501,9.706,-0.084,0.771,-0.007,0.007,0.012
12604,9.689,-0.089,0.773,-0.007,0.007,0.012
12707,9.689,-0.096,0.771,-0.007,0.008,0.012
12810,9.68,-0.108,0.776,-0.007,0.007,0.012
12913,9.692,-0.091,0.778,-0.007,0.007,0.012
13016,9.689,-0.091,0.778,-0.007,0.008,0.012
13119,9.694,-0.096,0.778,-0.007,0.007,0.012
13222,9.685,-0.091,0.776,-0.007,0.007,0.012
13325,9.692,-0.093,0.766,-0.007,0.007,0.012
13428,9.692,-0.103,0.764,-0.007,0.007,0.012
13531,9.692,-0.084,0.776,-0.007,0.007,0.012
13634,9.699,-0.086,0.788,-0.007,0.007,0.012
13737,9.68,-0.096,0.773,-0.008,0.007,0.012
13840,9.699,-0.101,0.778,-0.007,0.008,0.013
13943,9.699,-0.091,0.788,-0.008,0.007,0.012
14046,9.694,-0.101,0.778,-0.007,0.007,0.012
14149,9.692,-0.098,0.773,-0.007,0.007,0.012
14252,9.694,-0.098,0.778,-0.007,0.008,0.012
14355,9.697,-0.093,0.764,-0.007,0.008,0.012
14458,9.697,-0.089,0.792,-0.008,0.007,0.012
14561,9.68,-0.103,0.781,-0.008,0.007,0.012
14664,9.694,-0.093,0.764,-0.007,0.007,0.012
14767,9.692,-0.091,0.778,-0.007,0.007,0.012
14870,9.699,-0.098,0.783,-0.007,0.007,0.012
14973,9.697,-0.093,0.783,-0.007,0.007,0.012
15076,9.692,-0.086,0.771,-0.007,0.007,0.012
15179,9.689,-0.093,0.769,-0.007,0.007,0.012
15282,9.692,-0.086,0.788,-0.008,0.008,0.012
15385,9.687,-0.084,0.771,-0.007,0.007,0.012
15488,9.692,-0.091,0.781,-0.007,0.007,0.012
15591,9.699,-0.096,0.776,-0.007,0.007,0.012
15694,9.699,-0.098,0.776,-0.007,0.007,0.011
15797,9.689,-0.093,0.771,-0.007,0.008,0.011
15900,9.699,-0.081,0.781,-0.007,0.007,0.012
16003,9.689,-0.103,0.783,-0.007,0.007,0.012
16106,9.697,-0.093,0.771,-0.007,0.007,0.012
16209,9.692,-0.091,0.778,-0.007,0.007,0.012
16312,9.682,-0.098,0.773,-0.007,0.007,0.012
16415,9.692,-0.089,0.771,-0.007,0.008,0.012
16518,9.692,-0.089,0.766,-0.007,0.007,0.012
16621,9.685,-0.096,0.776,-0.007,0.007,0.012
16724,9.699,-0.091,0.771,-0.007,0.007,0.012
16827,9.692,-0.098,0.771,-0.007,0.007,0.012
16930,9.692,-0.086,0.79,-0.007,0.007,0.012
17033,9.697,-0.093,0.785,-0.008,0.007,0.012
17136,9.687,-0.093,0.773,-0.007,0.007,0.012
17239,9.689,-0.098,0.788,-0.007,0.007,0.012
17342,9.692,-0.103,0.776,-0.008,0.007,0.012
17445,9.692,-0.091,0.783,-0.007,0.007,0.012
17548,9.689,-0.093,0.792,-0.007,0.007,0.012
17651,9.692,-0.084,0.778,-0.007,0.007,0.011
17754,9.692,-0.096,0.778,-0.007,0.007,0.012
17857,9.697,-0.101,0.785,-0.007,0.007,0.012
17960,9.687,-0.098,0.757,-0.007,0.007,0.012
18063,9.704,-0.103,0.776,-0.007,0.007,0.011
18166,9.697,-0.098,0.781,-0.008,0.007,0.012
18269,9.697,-0.089,0.783,-0.007,0.007,0.012
18372,9.694,-0.086,0.781,-0.007,0.007,0.012
18475,9.697,-0.089,0.773,-0.008,0.007,0.012
18578,9.689,-0.098,0.776,-0.007,0.007,0.011
18681,9.694,-0.089,0.788,-0.007,0.007,0.011
18784,9.689,-0.089,0.766,-0.008,0.007,0.012
18887,9.694,-0.093,0.785,-0.007,0.007,0.012
18990,9.697,-0.096,0.79,-0.007,0.007,0.013
19093,9.685,-0.101,0.778,-0.007,0.008,0.012
19196,9.689,-0.091,0.781,-0.007,0.007,0.012
19299,9.701,-0.096,0.773,-0.007,0.007,0.012
19402,9.687,-0.089,0.783,-0.007,0.007,0.012
19505,9.694,-0.105,0.773,-0.007,0.008,0.012
19608,9.694,-0.091,0.781,-0.007,0.007,0.012
19711,9.697,-0.084,0.771,-0.007,0.007,0.012
19814,9.687,-0.091,0.781,-0.007,0.007,0.012
19917,9.692,-0.091,0.795,-0.007,0.007,0.012
20020,9.694,-0.098,0.764,-0.007,0.007,0.012
20123,9.694,-0.093,0.785,-0.007,0.007,0.013
20226,9.689,-0.096,0.773,-0.007,0.007,0.012
20329,9.701,-0.086,0.788,-0.007,0.007,0.012
20432,9.697,-0.084,0.771,-0.007,0.007,0.012
20535,9.694,-0.096,0.771,-0.007,0.007,0.013
20638,9.704,-0.089,0.781,-0.007,0.007,0.011
20741,9.689,-0.096,0.778,-0.008,0.007,0.012
20844,9.697,-0.091,0.79,-0.007,0.007,0.012
20947,9.651,-0.103,0.759,-0.007,0.008,0.011
21050,9.68,-0.084,0.733,-0.006,0.008,0.011
21153,9.694,-0.103,0.809,-0.005,0.009,0.011
21256,9.697,-0.141,0.867,-0.003,0.009,0.011
21359,9.682,-0.091,0.771,-0.007,0.007,0.012
21462,9.687,-0.074,0.816,-0.007,0.008,0.011
21565,9.694,-0.096,0.785,-0.007,0.007,0.012
21668,9.687,-0.105,0.771,-0.007,0.007,0.011
21771,9.694,-0.086,0.783,-0.007,0.008,0.012
21874,9.687,-0.096,0.773,-0.007,0.007,0.012
21977,9.694,-0.086,0.785,-0.007,0.007,0.012
22080,9.694,-0.089,0.797,-0.008,0.007,0.012
22183,9.682,-0.103,0.802,-0.007,0.007,0.012
22286,9.692,-0.096,0.802,-0.007,0.007,0.012
22389,9.699,-0.098,0.79,-0.007,0.007,0.012
22492,9.689,-0.091,0.785,-0.008,0.007,0.011
22595,9.694,-0.081,0.79,-0.007,0.007,0.012
22698,9.692,-0.089,0.783,-0.008,0.007,0.012
22801,9.685,-0.101,0.79,-0.008,0.007,0.012
22904,9.701,-0.086,0.785,-0.007,0.007,0.012
23007,9.699,-0.086,0.783,-0.007,0.008,0.012
23110,9.692,-0.081,0.783,-0.007,0.007,0.012
23213,9.689,-0.084,0.788,-0.007,0.007,0.013
23316,9.689,-0.098,0.781,-0.008,0.007,0.012
23419,9.699,-0.079,0.792,-0.007,0.007,0.012
23522,9.685,-0.091,0.783,-0.007,0.007,0.012
23625,9.694,-0.091,0.79,-0.007,0.008,0.012
23728,9.708,-0.072,0.776,-0.007,0.008,0.011
23831,9.682,-0.101,0.79,-0.008,0.007,0.012
23934,9.694,-0.086,0.781,-0.007,0.007,0.011
24037,9.685,-0.079,0.788,-0.007,0.007,0.012
24140,9.689,-0.098,0.788,-0.007,0.007,0.011
24243,9.706,-0.086,0.783,-0.007,0.008,0.011
24346,9.692,-0.086,0.795,-0.007,0.007,0.012
24449,9.692,-0.096,0.79,-0.007,0.007,0.012
24552,9.697,-0.089,0.79,-0.007,0.007,0.012
24655,9.685,-0.089,0.776,-0.007,0.007,0.012
24758,9.692,-0.079,0.776,-0.007,0.007,0.012
24861,9.694,-0.089,0.807,-0.008,0.008,0.012
24964,9.697,-0.098,0.769,-0.008,0.007,0.012
25067,9.692,-0.098,0.783,-0.007,0.007,0.012
25170,9.697,-0.096,0.773,-0.007,0.008,0.012
25273,9.694,-0.103,0.795,-0.007,0.007,0.011
25376,9.697,-0.091,0.781,-0.007,0.007,0.012
25479,9.692,-0.096,0.778,-0.007,0.007,0.012
25582,9.697,-0.086,0.788,-0.007,0.007,0.012
25685,9.697,-0.079,0.778,-0.007,0.008,0.012
25788,9.704,-0.091,0.79,-0.008,0.007,0.012
25891,9.692,-0.093,0.773,-0.008,0.007,0.011
25994,9.694,-0.084,0.776,-0.008,0.008,0.012
26097,9.689,-0.096,0.783,-0.008,0.007,0.012
26200,9.692,-0.089,0.773,-0.007,0.007,0.012
26303,9.699,-0.098,0.769,-0.007,0.007,0.012
26406,9.685,-0.089,0.778,-0.007,0.008,0.012
26509,9.687,-0.079,0.783,-0.007,0.007,0.012
26612,9.689,-0.086,0.797,-0.007,0.007,0.012
26715,9.685,-0.089,0.771,-0.007,0.007,0.011
26818,9.692,-0.093,0.778,-0.007,0.007,0.011
26921,9.692,-0.093,0.783,-0.007,0.008,0.012
27024,9.689,-0.084,0.783,-0.007,0.007,0.011
27127,9.699,-0.089,0.781,-0.007,0.007,0.012
27230,9.687,-0.096,0.769,-0.007,0.007,0.012
27333,9.699,-0.096,0.79,-0.007,0.007,0.011
27436,9.694,-0.091,0.776,-0.008,0.007,0.012
27539,9.692,-0.091,0.778,-0.008,0.007,0.011
27642,9.697,-0.093,0.773,-0.007,0.007,0.013
27745,9.68,-0.098,0.778,-0.007,0.007,0.012
27848,9.692,-0.077,0.778,-0.007,0.007,0.011
27951,9.699,-0.081,0.785,-0.008,0.007,0.012
28054,9.699,-0.096,0.771,-0.007,0.007,0.012
28157,9.692,-0.089,0.773,-0.007,0.007,0.012
28260,9.694,-0.091,0.792,-0.007,0.007,0.012
28363,9.687,-0.098,0.778,-0.007,0.007,0.012
28466,9.697,-0.089,0.773,-0.007,0.007,0.012
28569,9.685,-0.093,0.785,-0.008,0.007,0.012
28672,9.699,-0.096,0.781,-0.007,0.007,0.012
28775,9.689,-0.103,0.757,-0.007,0.006,0.014
28878,9.682,-0.096,0.783,-0.007,0.007,0.012
28981,9.697,-0.091,0.761,-0.007,0.008,0.011
29084,9.761,-0.038,0.754,-0.01,0.009,0.012
29187,9.687,-0.089,0.795,-0.007,0.008,0.011
29290,9.711,-0.072,0.788,-0.008,0.007,0.011
29393,9.699,-0.089,0.766,-0.007,0.007,0.012
29496,9.689,-0.096,0.769,-0.007,0.007,0.011
29599,9.694,-0.081,0.781,-0.007,0.007,0.012
29702,9.694,-0.091,0.776,-0.008,0.008,0.012
29805,9.692,-0.093,0.781,-0.007,0.008,0.012
29908,9.692,-0.098,0.785,-0.007,0.008,0.012
30011,9.685,-0.081,0.778,-0.007,0.007,0.012
30114,9.694,-0.084,0.785,-0.007,0.007,0.012
30217,9.685,-0.091,0.778,-0.007,0.007,0.012
30320,9.694,-0.096,0.797,-0.007,0.007,0.012
30423,9.697,-0.091,0.792,-0.007,0.008,0.011
30526,9.697,-0.096,0.781,-0.007,0.008,0.012
30629,9.685,-0.098,0.771,-0.007,0.008,0.011
30732,9.694,-0.081,0.797,-0.007,0.007,0.012
30835,9.689,-0.091,0.778,-0.007,0.008,0.012
30938,9.697,-0.091,0.783,-0.007,0.007,0.012
31041,9.646,-0.098,0.888,-0.003,0.371,0.042
31144,9.737,-0.139,1.448,-0.008,0.148,0.025
31247,9.658,-0.127,1.338,-0.007,0.014,0.012
31350,9.658,-0.134,1.341,-0.008,0.008,0.012
31453,9.649,-0.136,1.331,-0.007,0.008,0.012
31556,9.661,-0.136,1.353,-0.007,0.008,0.012
31659,9.653,-0.139,1.338,-0.008,0.008,0.012
31762,9.653,-0.132,1.341,-0.008,0.008,0.012
31865,9.658,-0.132,1.324,-0.007,0.008,0.011
31968,9.663,-0.141,1.343,-0.008,0.008,0.011
32071,9.67,-0.136,1.326,-0.007,0.007,0.011
32174,9.661,-0.136,1.35,-0.008,0.008,0.012
32277,9.658,-0.139,1.319,-0.007,0.008,0.011
32380,9.663,-0.134,1.341,-0.007,0.008,0.012
32483,9.665,-0.139,1.331,-0.007,0.007,0.012
32586,9.653,-0.132,1.341,-0.007,0.007,0.011
32689,9.663,-0.139,1.346,-0.006,0.008,0.012
32792,9.658,-0.139,1.336,-0.008,0.007,0.012
32895,9.651,-0.144,1.338,-0.008,0.008,0.012
32998,9.665,-0.136,1.343,-0.008,0.007,0.011
33101,9.644,-0.141,1.343,-0.007,0.008,0.011
33204,9.651,-0.141,1.331,-0.007,0.007,0.011
33307,9.651,-0.136,1.346,-0.007,0.007,0.012
33410,9.653,-0.132,1.338,-0.007,0.007,0.012
33513,9.651,-0.127,1.334,-0.007,0.007,0.012
33616,9.646,-0.144,1.343,-0.007,0.007,0.011
33719,9.658,-0.144,1.331,-0.007,0.007,0.011
33822,9.67,-0.132,1.336,-0.007,0.008,0.012
33925,9.644,-0.136,1.331,-0.007,0.007,0.011
34028,9.653,-0.136,1.346,-0.007,0.008,0.011
34131,9.656,-0.134,1.334,-0.008,0.008,0.012
34234,9.649,-0.139,1.334,-0.007,0.007,0.012
34337,9.658,-0.134,1.338,-0.007,0.007,0.011
34440,9.656,-0.144,1.346,-0.007,0.008,0.011
34543,9.658,-0.146,1.338,-0.008,0.008,0.012
34646,9.67,-0.12,1.346,-0.007,0.007,0.012
34749,9.677,-0.132,1.329,-0.008,0.007,0.011
34852,9.656,-0.132,1.336,-0.007,0.007,0.011
34955,9.653,-0.132,1.334,-0.007,0.008,0.012
35058,9.651,-0.129,1.341,-0.008,0.008,0.012
35161,9.661,-0.141,1.331,-0.007,0.008,0.011
35264,9.663,-0.134,1.329,-0.008,0.007,0.012
35367,9.665,-0.141,1.331,-0.008,0.007,0.012
35470,9.649,-0.117,1.269,-0.008,0.006,0.013
35573,9.661,-0.141,1.348,-0.007,0.008,0.013
35676,9.646,-0.134,1.353,-0.007,0.008,0.011
35779,9.651,-0.132,1.334,-0.008,0.007,0.012
35882,9.658,-0.141,1.331,-0.007,0.007,0.012
35985,9.656,-0.144,1.331,-0.007,0.007,0.011
36088,9.68,-0.141,1.35,-0.008,0.007,0.012
36191,9.644,-0.139,1.343,-0.007,0.007,0.012
36294,9.651,-0.127,1.329,-0.007,0.007,0.012
36397,9.661,-0.141,1.331,-0.007,0.008,0.012
36500,9.658,-0.139,1.326,-0.008,0.008,0.011
36603,9.663,-0.132,1.338,-0.007,0.008,0.011
36706,9.658,-0.136,1.324,-0.008,0.007,0.011
36809,9.653,-0.141,1.326,-0.007,0.008,0.011
36912,9.656,-0.136,1.336,-0.007,0.007,0.011
37015,9.644,-0.144,1.331,-0.007,0.007,0.011
37118,9.656,-0.127,1.314,-0.007,0.008,0.012
37221,9.656,-0.134,1.331,-0.007,0.007,0.011
37324,9.658,-0.134,1.329,-0.007,0.007,0.012
37427,9.668,-0.144,1.324,-0.007,0.007,0.011
37530,9.653,-0.144,1.336,-0.007,0.008,0.012
37633,9.653,-0.144,1.329,-0.007,0.007,0.011
37736,9.658,-0.146,1.319,-0.007,0.007,0.012
37839,9.673,-0.124,1.31,-0.007,0.007,0.012
37942,9.649,-0.144,1.343,-0.007,0.007,0.012
38045,9.656,-0.136,1.326,-0.007,0.007,0.012
38148,9.658,-0.146,1.331,-0.008,0.007,0.011
38251,9.656,-0.151,1.336,-0.007,0.007,0.011
38354,9.653,-0.144,1.329,-0.006,0.008,0.012
38457,9.771,-0.148,1.525,-0.014,0.006,0.009
38560,9.656,-0.134,1.35,-0.007,0.007,0.012
38663,9.656,-0.146,1.336,-0.008,0.007,0.012
38766,9.649,-0.148,1.343,-0.007,0.008,0.011
38869,9.661,-0.134,1.346,-0.007,0.008,0.012
38972,9.663,-0.148,1.374,-0.008,0.007,0.011
39075,9.658,-0.141,1.341,-0.007,0.007,0.011
39178,9.661,-0.146,1.338,-0.007,0.007,0.012
39281,9.651,-0.136,1.331,-0.008,0.007,0.011
39384,9.653,-0.129,1.35,-0.007,0.007,0.012
39487,9.658,-0.139,1.343,-0.007,0.007,0.012
39590,9.656,-0.132,1.334,-0.007,0.008,0.012
39693,9.653,-0.132,1.329,-0.008,0.007,0.011
39796,9.653,-0.136,1.343,-0.007,0.007,0.012
39899,9.646,-0.141,1.343,-0.007,0.007,0.012
40002,9.663,-0.141,1.353,-0.007,0.007,0.012
40105,9.656,-0.139,1.302,-0.008,0.007,0.012
40208,9.661,-0.144,1.336,-0.007,0.008,0.012
40311,9.653,-0.139,1.336,-0.007,0.008,0.012
40414,9.651,-0.132,1.355,-0.007,0.007,0.011
40517,9.661,-0.144,1.331,-0.007,0.008,0.011
40620,9.656,-0.141,1.348,-0.007,0.008,0.012
40723,9.658,-0.148,1.346,-0.007,0.007,0.011
40826,9.658,-0.141,1.346,-0.007,0.007,0.012
40929,9.658,-0.148,1.348,-0.007,0.007,0.012
41032,9.649,-0.134,1.334,-0.007,0.007,0.011
41135,9.663,-0.144,1.336,-0.007,0.007,0.012
41238,9.663,-0.151,1.353,-0.008,0.007,0.012
41341,9.665,-0.132,1.346,-0.008,0.008,0.012
41444,9.663,-0.144,1.324,-0.007,0.007,0.012
41547,9.658,-0.144,1.334,-0.007,0.007,0.011
41650,9.67,-0.139,1.343,-0.007,0.007,0.012
41753,9.656,-0.132,1.326,-0.007,0.007,0.012
41856,9.653,-0.144,1.322,-0.007,0.007,0.011
41959,9.663,-0.134,1.355,-0.007,0.007,0.012
42062,9.656,-0.144,1.334,-0.007,0.007,0.011
42165,9.665,-0.136,1.348,-0.007,0.007,0.011
42268,9.665,-0.153,1.326,-0.007,0.007,0.012
42371,9.661,-0.136,1.35,-0.008,0.007,0.012
42474,9.656,-0.134,1.324,-0.007,0.007,0.011
42577,9.653,-0.139,1.331,-0.008,0.007,0.012
42680,9.653,-0.139,1.317,-0.007,0.008,0.012
42783,9.656,-0.146,1.324,-0.007,0.007,0.011
42886,9.663,-0.146,1.336,-0.008,0.007,0.012
42989,9.651,-0.141,1.343,-0.007,0.007,0.011
43092,9.653,-0.141,1.336,-0.007,0.008,0.012
43195,9.661,-0.139,1.317,-0.007,0.007,0.011
43298,9.651,-0.141,1.343,-0.007,0.007,0.012
43401,9.653,-0.148,1.334,-0.007,0.007,0.012
43504,9.656,-0.141,1.338,-0.008,0.007,0.012
43607,9.653,-0.139,1.353,-0.007,0.008,0.011
43710,9.658,-0.136,1.35,-0.007,0.007,0.011
43813,9.656,-0.136,1.329,-0.008,0.007,0.011
43916,9.663,-0.136,1.334,-0.007,0.008,0.011
44019,9.656,-0.141,1.334,-0.008,0.007,0.012
44122,9.653,-0.136,1.331,-0.007,0.007,0.011
44225,9.663,-0.134,1.348,-0.007,0.007,0.011
44328,9.653,-0.134,1.334,-0.008,0.007,0.012
44431,9.656,-0.141,1.343,-0.008,0.007,0.011
44534,9.661,-0.141,1.348,-0.007,0.007,0.013
44637,9.656,-0.139,1.341,-0.007,0.007,0.012
44740,9.651,-0.139,1.343,-0.007,0.007,0.012
44843,9.658,-0.148,1.348,-0.008,0.007,0.012
44946,9.658,-0.144,1.338,-0.007,0.007,0.011
45049,9.658,-0.132,1.336,-0.007,0.007,0.011
45152,9.649,-0.148,1.326,-0.008,0.007,0.011
45255,9.656,-0.139,1.331,-0.007,0.007,0.011
45358,9.656,-0.144,1.348,-0.007,0.008,0.011
45461,9.658,-0.136,1.346,-0.007,0.007,0.011
45564,9.658,-0.141,1.334,-0.007,0.008,0.011
45667,9.665,-0.146,1.343,-0.008,0.007,0.012
45770,9.668,-0.141,1.343,-0.007,0.008,0.011
45873,9.661,-0.139,1.338,-0.007,0.007,0.011
45976,9.661,-0.153,1.343,-0.007,0.008,0.012
46079,9.653,-0.151,1.334,-0.007,0.007,0.011
46182,9.663,-0.139,1.341,-0.007,0.008,0.011
46285,9.651,-0.136,1.324,-0.007,0.007,0.011
46388,9.649,-0.146,1.343,-0.008,0.008,0.011
46491,9.67,-0.139,1.329,-0.007,0.007,0.012
46594,9.658,-0.132,1.324,-0.007,0.007,0.012
46697,9.653,-0.141,1.338,-0.007,0.007,0.012
46800,9.658,-0.144,1.336,-0.008,0.007,0.012
46903,9.656,-0.141,1.331,-0.007,0.007,0.012
47006,9.663,-0.146,1.348,-0.007,0.007,0.012
47109,9.651,-0.139,1.343,-0.007,0.007,0.012
47212,9.665,-0.136,1.338,-0.007,0.007,0.012
47315,9.661,-0.139,1.338,-0.007,0.007,0.011
47418,9.649,-0.141,1.336,-0.008,0.007,0.011
47521,9.663,-0.136,1.341,-0.007,0.007,0.011
47624,9.663,-0.141,1.346,-0.007,0.007,0.011
47727,9.653,-0.146,1.326,-0.008,0.008,0.011
47830,9.658,-0.136,1.348,-0.008,0.007,0.012
47933,9.646,-0.146,1.348,-0.007,0.007,0.012
48036,9.658,-0.136,1.336,-0.007,0.007,0.011
48139,9.656,-0.148,1.334,-0.007,0.007,0.011
48242,9.663,-0.129,1.329,-0.007,0.007,0.012
48345,9.661,-0.141,1.336,-0.007,0.008,0.012
48448,9.658,-0.129,1.341,-0.007,0.008,0.012
48551,9.661,-0.136,1.343,-0.008,0.007,0.012
48654,9.661,-0.136,1.338,-0.007,0.008,0.012
48757,9.653,-0.139,1.336,-0.007,0.007,0.011
48860,9.649,-0.144,1.346,-0.007,0.007,0.012
48963,9.656,-0.136,1.334,-0.007,0.007,0.012
49066,9.658,-0.146,1.341,-0.007,0.007,0.011
49169,9.658,-0.139,1.336,-0.007,0.007,0.012
49272,9.651,-0.129,1.336,-0.007,0.007,0.011
49375,9.656,-0.141,1.331,-0.008,0.007,0.012
49478,9.656,-0.134,1.338,-0.007,0.007,0.012
49581,9.661,-0.139,1.338,-0.007,0.007,0.011
49684,9.649,-0.139,1.334,-0.007,0.007,0.011
49787,9.661,-0.144,1.343,-0.007,0.007,0.012
49890,9.646,-0.136,1.331,-0.007,0.007,0.012
49993,9.649,-0.134,1.336,-0.007,0.007,0.012
50096,9.673,-0.141,1.336,-0.007,0.007,0.011
50199,9.663,-0.141,1.341,-0.007,0.007,0.011
50302,9.656,-0.134,1.334,-0.007,0.007,0.011
50405,9.668,-0.139,1.329,-0.007,0.007,0.012
50508,9.653,-0.136,1.343,-0.007,0.008,0.011
50611,9.639,-0.129,1.295,-0.009,0.007,0.012
50714,9.656,-0.134,1.329,-0.007,0.007,0.012
50817,9.661,-0.136,1.322,-0.008,0.007,0.011
50920,9.663,-0.139,1.338,-0.007,0.007,0.012
51023,9.658,-0.141,1.334,-0.007,0.007,0.011
51126,9.649,-0.132,1.341,-0.007,0.007,0.011
51229,9.658,-0.139,1.336,-0.007,0.007,0.012
51332,9.656,-0.141,1.334,-0.007,0.007,0.011
51435,9.658,-0.139,1.329,-0.007,0.008,0.011
51538,9.658,-0.146,1.348,-0.008,0.007,0.011
51641,9.658,-0.144,1.343,-0.007,0.007,0.011
51744,9.675,-0.146,1.35,-0.007,0.007,0.011
51847,9.649,-0.156,1.365,-0.007,0.008,0.011
51950,9.651,-0.148,1.331,-0.007,0.008,0.012
52053,9.668,-0.141,1.334,-0.007,0.007,0.011
52156,9.661,-0.129,1.343,-0.007,0.007,0.012
52259,9.653,-0.141,1.348,-0.007,0.007,0.012
52362,9.663,-0.139,1.348,-0.008,0.008,0.012
52465,9.646,-0.136,1.341,-0.007,0.008,0.011
52568,9.661,-0.146,1.326,-0.007,0.007,0.011
52671,9.665,-0.136,1.331,-0.007,0.007,0.012
52774,9.658,-0.141,1.331,-0.008,0.007,0.012
52877,9.661,-0.134,1.329,-0.008,0.007,0.012
52980,9.653,-0.146,1.355,-0.008,0.007,0.012
53083,9.651,-0.141,1.343,-0.007,0.007,0.011
53186,9.665,-0.141,1.343,-0.007,0.008,0.012
53289,9.661,-0.141,1.331,-0.008,0.008,0.011
53392,9.653,-0.146,1.341,-0.007,0.007,0.012
53495,9.668,-0.146,1.355,-0.007,0.007,0.012
53598,9.661,-0.139,1.329,-0.007,0.008,0.011
53701,9.653,-0.139,1.338,-0.007,0.007,0.012
53804,9.651,-0.148,1.346,-0.007,0.008,0.011
53907,9.651,-0.139,1.338,-0.008,0.007,0.011
54010,9.661,-0.129,1.343,-0.007,0.008,0.012
54113,9.656,-0.129,1.331,-0.008,0.008,0.011
54216,9.649,-0.124,1.346,-0.007,0.007,0.011
54319,9.673,-0.136,1.341,-0.007,0.008,0.011
54422,9.656,-0.136,1.336,-0.008,0.007,0.012
54525,9.663,-0.134,1.338,-0.007,0.008,0.011
54628,9.665,-0.132,1.338,-0.007,0.007,0.011
54731,9.646,-0.144,1.326,-0.007,0.007,0.011
54834,9.663,-0.146,1.348,-0.007,0.007,0.011
54937,9.661,-0.158,1.346,-0.008,0.007,0.011
55040,9.653,-0.146,1.338,-0.007,0.007,0.011
55143,9.658,-0.134,1.341,-0.007,0.007,0.011
55246,9.668,-0.148,1.346,-0.008,0.007,0.012
55349,9.663,-0.132,1.343,-0.008,0.007,0.012
55452,9.67,-0.148,1.338,-0.008,0.007,0.011
55555,9.651,-0.139,1.343,-0.007,0.007,0.011
55658,9.661,-0.134,1.343,-0.007,0.007,0.011
55761,9.661,-0.136,1.343,-0.007,0.007,0.012
55864,9.653,-0.148,1.326,-0.007,0.007,0.012
55967,9.661,-0.139,1.334,-0.007,0.006,0.011
56070,9.658,-0.148,1.346,-0.007,0.007,0.012
56173,9.653,-0.144,1.334,-0.007,0.008,0.011
56276,9.663,-0.148,1.341,-0.007,0.007,0.012
56379,9.639,-0.141,1.336,-0.008,0.007,0.012
56482,9.658,-0.144,1.341,-0.007,0.007,0.011
56585,9.67,-0.132,1.334,-0.008,0.008,0.011
56688,9.658,-0.144,1.353,-0.007,0.007,0.011
56791,9.656,-0.136,1.331,-0.007,0.008,0.012
56894,9.656,-0.146,1.358,-0.007,0.007,0.012
56997,9.661,-0.141,1.338,-0.007,0.007,0.012
57100,9.67,-0.139,1.326,-0.007,0.007,0.011
57203,9.656,-0.134,1.322,-0.008,0.007,0.011
57306,9.668,-0.134,1.331,-0.007,0.007,0.011
57409,9.656,-0.134,1.35,-0.007,0.007,0.012
57512,9.658,-0.139,1.319,-0.007,0.007,0.011
57615,9.668,-0.132,1.334,-0.007,0.007,0.011
57718,9.661,-0.141,1.341,-0.008,0.008,0.011
57821,9.649,-0.144,1.338,-0.007,0.008,0.011
57924,9.665,-0.134,1.326,-0.007,0.008,0.012
58027,9.656,-0.134,1.355,-0.007,0.007,0.012
58130,9.658,-0.139,1.346,-0.007,0.008,0.011
58233,9.663,-0.139,1.326,-0.007,0.008,0.011
58336,9.658,-0.134,1.329,-0.008,0.007,0.011
58439,9.649,-0.141,1.341,-0.007,0.007,0.011
58542,9.656,-0.136,1.338,-0.007,0.007,0.012
58645,9.665,-0.144,1.348,-0.008,0.007,0.011
58748,9.653,-0.146,1.331,-0.007,0.008,0.012
58851,9.668,-0.136,1.338,-0.008,0.007,0.012
58954,9.651,-0.144,1.334,-0.008,0.007,0.011
59057,9.656,-0.134,1.348,-0.007,0.007,0.011
59160,9.656,-0.139,1.336,-0.007,0.007,0.012
59263,9.651,-0.141,1.336,-0.007,0.007,0.011
59366,9.663,-0.134,1.348,-0.008,0.007,0.011
59469,9.653,-0.136,1.329,-0.007,0.007,0.012
59572,9.658,-0.139,1.35,-0.007,0.007,0.011
59675,9.661,-0.139,1.35,-0.007,0.007,0.012
59778,9.661,-0.134,1.343,-0.008,0.007,0.012
59881,9.663,-0.141,1.35,-0.007,0.007,0.012
59984,9.658,-0.141,1.334,-0.007,0.007,0.011
60087,9.663,-0.141,1.334,-0.007,0.007,0.011
60190,9.665,-0.146,1.36,-0.007,0.007,0.012
60293,9.658,-0.141,1.336,-0.007,0.007,0.012
60396,9.656,-0.134,1.343,-0.007,0.007,0.011
60499,9.668,-0.134,1.353,-0.007,0.007,0.011
60602,9.649,-0.139,1.334,-0.007,0.007,0.011
60705,9.668,-0.132,1.35,-0.007,0.007,0.012
60808,9.663,-0.146,1.348,-0.007,0.007,0.011
60911,9.656,-0.144,1.336,-0.007,0.007,0.011
61014,9.656,-0.134,1.346,-0.007,0.007,0.011
61117,9.653,-0.144,1.331,-0.007,0.007,0.011
61220,9.656,-0.148,1.334,-0.006,0.007,0.012
61323,9.658,-0.146,1.353,-0.007,0.007,0.011
61426,9.656,-0.144,1.341,-0.007,0.008,0.011
61529,9.665,-0.141,1.334,-0.008,0.007,0.011
61632,9.646,-0.151,1.338,-0.008,0.007,0.012
61735,9.658,-0.132,1.322,-0.007,0.008,0.011
61838,9.656,-0.156,1.353,-0.007,0.007,0.011
61941,9.651,-0.136,1.334,-0.008,0.007,0.012
62044,9.646,-0.141,1.324,-0.008,0.007,0.012
62147,9.658,-0.146,1.341,-0.008,0.007,0.011
62250,9.673,-0.132,1.35,-0.007,0.007,0.011
62353,9.661,-0.144,1.329,-0.007,0.007,0.011
62456,9.663,-0.151,1.331,-0.007,0.007,0.012
62559,9.656,-0.136,1.348,-0.008,0.007,0.011
62662,9.663,-0.141,1.341,-0.007,0.007,0.011
62765,9.661,-0.148,1.343,-0.007,0.008,0.011
62868,9.661,-0.139,1.324,-0.007,0.007,0.011
62971,9.665,-0.136,1.338,-0.007,0.007,0.011
63074,9.656,-0.148,1.341,-0.007,0.008,0.011
63177,9.665,-0.132,1.338,-0.008,0.007,0.011
63280,9.658,-0.139,1.341,-0.007,0.007,0.011
63383,9.649,-0.136,1.348,-0.007,0.007,0.011
63486,9.653,-0.134,1.343,-0.007,0.008,0.011
63589,9.653,-0.139,1.331,-0.007,0.007,0.012
63692,9.653,-0.134,1.324,-0.007,0.007,0.011
63795,9.658,-0.151,1.362,-0.007,0.007,0.011
63898,9.651,-0.141,1.341,-0.007,0.007,0.012
64001,9.653,-0.148,1.338,-0.008,0.007,0.011
64104,9.673,-0.139,1.346,-0.007,0.007,0.011
64207,9.661,-0.144,1.336,-0.008,0.007,0.011
64310,9.661,-0.127,1.355,-0.008,0.007,0.011
64413,9.665,-0.141,1.348,-0.007,0.007,0.012
64516,9.656,-0.139,1.343,-0.007,0.007,0.011
64619,9.661,-0.144,1.341,-0.007,0.007,0.011
64722,9.653,-0.148,1.341,-0.008,0.007,0.011
64825,9.661,-0.141,1.336,-0.007,0.007,0.011
64928,9.665,-0.144,1.331,-0.007,0.007,0.011
65031,9.651,-0.151,1.353,-0.007,0.007,0.011
65134,9.668,-0.146,1.324,-0.007,0.007,0.012
65237,9.663,-0.136,1.338,-0.007,0.007,0.011
65340,9.653,-0.139,1.346,-0.007,0.007,0.011
65443,9.661,-0.136,1.338,-0.007,0.007,0.011
65546,9.661,-0.136,1.336,-0.007,0.008,0.011
65649,9.656,-0.132,1.334,-0.007,0.007,0.012
65752,9.656,-0.148,1.324,-0.008,0.007,0.011
65855,9.661,-0.156,1.346,-0.007,0.007,0.011
65958,9.656,-0.148,1.341,-0.008,0.007,0.011
66061,9.658,-0.139,1.336,-0.007,0.007,0.011
66164,9.658,-0.134,1.341,-0.007,0.007,0.012
66267,9.665,-0.132,1.329,-0.007,0.007,0.011
66370,9.658,-0.134,1.338,-0.008,0.008,0.011
66473,9.661,-0.148,1.362,-0.007,0.007,0.011
66576,9.661,-0.139,1.338,-0.008,0.007,0.011
66679,9.663,-0.146,1.331,-0.007,0.007,0.012
66782,9.661,-0.151,1.338,-0.007,0.007,0.011
66885,9.656,-0.144,1.331,-0.008,0.007,0.011
66988,9.653,-0.141,1.338,-0.007,0.007,0.012
67091,9.658,-0.141,1.336,-0.007,0.007,0.011
67194,9.665,-0.144,1.341,-0.007,0.008,0.011
67297,9.656,-0.146,1.326,-0.007,0.007,0.012
67400,9.663,-0.132,1.324,-0.007,0.008,0.012
67503,9.663,-0.134,1.348,-0.007,0.007,0.012
67606,9.653,-0.136,1.341,-0.008,0.007,0.011
67709,9.665,-0.129,1.348,-0.007,0.007,0.011
67812,9.663,-0.134,1.329,-0.007,0.007,0.012
67915,9.656,-0.141,1.353,-0.007,0.007,0.011
68018,9.658,-0.141,1.338,-0.007,0.007,0.011
68121,9.653,-0.144,1.362,-0.007,0.007,0.012
68224,9.656,-0.139,1.35,-0.007,0.007,0.012
68327,9.649,-0.144,1.341,-0.007,0.007,0.011
68430,9.656,-0.144,1.329,-0.007,0.007,0.011
68533,9.656,-0.132,1.346,-0.007,0.007,0.011
68636,9.663,-0.146,1.35,-0.007,0.008,0.011
68739,9.651,-0.139,1.338,-0.007,0.007,0.011
68842,9.661,-0.146,1.331,-0.007,0.007,0.011
68945,9.656,-0.139,1.338,-0.008,0.008,0.011
69048,9.658,-0.136,1.326,-0.007,0.007,0.011
69151,9.661,-0.139,1.346,-0.007,0.007,0.011
69254,9.653,-0.144,1.35,-0.007,0.007,0.011
69357,9.656,-0.144,1.334,-0.007,0.007,0.011
69460,9.665,-0.151,1.35,-0.007,0.008,0.011
69563,9.661,-0.144,1.348,-0.007,0.007,0.011
69666,9.656,-0.139,1.341,-0.007,0.007,0.011
69769,9.661,-0.144,1.338,-0.007,0.007,0.011
69872,9.656,-0.134,1.341,-0.008,0.007,0.011
69975,9.658,-0.141,1.341,-0.007,0.007,0.012
70078,9.651,-0.144,1.343,-0.007,0.008,0.011
70181,9.668,-0.132,1.334,-0.007,0.008,0.011
70284,9.67,-0.148,1.348,-0.007,0.007,0.011
70387,9.653,-0.134,1.336,-0.008,0.007,0.011
70490,9.653,-0.139,1.334,-0.007,0.007,0.011
70593,9.656,-0.141,1.358,-0.007,0.007,0.011
70696,9.665,-0.151,1.334,-0.007,0.007,0.012
70799,9.661,-0.134,1.346,-0.007,0.007,0.011
70902,9.665,-0.146,1.334,-0.007,0.008,0.012
71005,9.653,-0.139,1.341,-0.008,0.007,0.011
71108,9.656,-0.139,1.353,-0.007,0.007,0.012
71211,9.651,-0.139,1.343,-0.007,0.007,0.012
71314,9.661,-0.134,1.348,-0.007,0.007,0.012
71417,9.661,-0.132,1.346,-0.007,0.007,0.012
71520,9.661,-0.146,1.331,-0.008,0.007,0.011
71623,9.651,-0.132,1.35,-0.007,0.007,0.011
71726,9.665,-0.148,1.346,-0.007,0.006,0.011
71829,9.646,-0.151,1.336,-0.007,0.007,0.011
71932,9.668,-0.134,1.341,-0.007,0.007,0.011
72035,9.665,-0.141,1.336,-0.007,0.007,0.012
72138,9.656,-0.134,1.353,-0.007,0.007,0.011
72241,9.656,-0.136,1.341,-0.007,0.007,0.011
72344,9.661,-0.146,1.334,-0.008,0.007,0.011
72447,9.656,-0.136,1.334,-0.008,0.007,0.011
72550,9.656,-0.144,1.331,-0.007,0.007,0.011
72653,9.661,-0.146,1.35,-0.007,0.007,0.011
72756,9.653,-0.139,1.343,-0.007,0.007,0.011
72859,9.661,-0.139,1.341,-0.007,0.007,0.012
72962,9.658,-0.136,1.341,-0.007,0.007,0.011
73065,9.656,-0.129,1.343,-0.007,0.007,0.011
73168,9.665,-0.136,1.322,-0.008,0.007,0.011
73271,9.653,-0.134,1.331,-0.008,0.007,0.011
73374,9.665,-0.141,1.336,-0.008,0.007,0.012
73477,9.668,-0.144,1.336,-0.007,0.007,0.012
73580,9.665,-0.146,1.348,-0.008,0.007,0.011
73683,9.656,-0.141,1.341,-0.008,0.007,0.012
73786,9.653,-0.134,1.331,-0.007,0.007,0.011
73889,9.675,-0.134,1.338,-0.007,0.008,0.011
73992,9.661,-0.136,1.338,-0.008,0.007,0.011
74095,9.67,-0.139,1.336,-0.008,0.007,0.011
74198,9.668,-0.144,1.35,-0.007,0.007,0.012
74301,9.653,-0.141,1.341,-0.007,0.007,0.011
74404,9.661,-0.139,1.348,-0.007,0.007,0.011
74507,9.663,-0.136,1.348,-0.007,0.007,0.011
74610,9.656,-0.144,1.334,-0.007,0.007,0.011
74713,9.668,-0.139,1.348,-0.008,0.007,0.011
74816,9.653,-0.148,1.336,-0.007,0.007,0.011
74919,9.653,-0.136,1.334,-0.008,0.007,0.011
75022,9.658,-0.141,1.336,-0.007,0.007,0.012
75125,9.658,-0.144,1.336,-0.007,0.007,0.011
75228,9.644,-0.141,1.329,-0.008,0.007,0.011
75331,9.665,-0.146,1.331,-0.007,0.007,0.011
75434,9.653,-0.144,1.331,-0.007,0.007,0.011
75537,9.649,-0.136,1.35,-0.007,0.007,0.012
75640,9.67,-0.132,1.348,-0.007,0.007,0.011
75743,9.661,-0.141,1.317,-0.008,0.007,0.011
75846,9.656,-0.141,1.343,-0.008,0.007,0.011
75949,9.663,-0.141,1.353,-0.007,0.007,0.011
76052,9.658,-0.141,1.343,-0.008,0.007,0.011
76155,9.665,-0.146,1.338,-0.007,0.007,0.011
76258,9.658,-0.139,1.343,-0.008,0.007,0.011
76361,9.658,-0.134,1.36,-0.007,0.007,0.011
76464,9.653,-0.144,1.336,-0.007,0.008,0.011
76567,9.661,-0.129,1.341,-0.008,0.007,0.011
76670,9.668,-0.139,1.36,-0.008,0.007,0.011
76773,9.661,-0.134,1.338,-0.007,0.007,0.011
76876,9.656,-0.141,1.346,-0.008,0.007,0.012
76979,9.668,-0.132,1.334,-0.008,0.007,0.011
77082,9.663,-0.129,1.343,-0.007,0.007,0.012
77185,9.663,-0.139,1.334,-0.007,0.007,0.011
77288,9.668,-0.136,1.341,-0.007,0.007,0.011
77391,9.658,-0.151,1.341,-0.008,0.007,0.012
77494,9.67,-0.136,1.322,-0.007,0.007,0.011
77597,9.668,-0.136,1.343,-0.007,0.007,0.011
77700,9.661,-0.139,1.35,-0.008,0.007,0.011
77803,9.668,-0.141,1.343,-0.007,0.007,0.011
77906,9.658,-0.146,1.338,-0.007,0.007,0.012
78009,9.649,-0.139,1.341,-0.008,0.007,0.011
78112,9.663,-0.134,1.341,-0.007,0.007,0.011
78215,9.656,-0.132,1.334,-0.007,0.007,0.012
78318,9.658,-0.141,1.343,-0.008,0.007,0.011
78421,9.656,-0.141,1.343,-0.007,0.007,0.011
78524,9.665,-0.141,1.348,-0.007,0.007,0.011
78627,9.663,-0.141,1.355,-0.007,0.007,0.011
78730,9.658,-0.141,1.343,-0.007,0.007,0.012
78833,9.653,-0.136,1.346,-0.007,0.007,0.011
78936,9.653,-0.139,1.341,-0.007,0.007,0.011
79039,9.663,-0.141,1.326,-0.008,0.007,0.011
79142,9.67,-0.136,1.341,-0.008,0.007,0.012
79245,9.67,-0.129,1.346,-0.007,0.007,0.012
79348,9.653,-0.146,1.353,-0.007,0.007,0.011
79451,9.658,-0.139,1.346,-0.007,0.007,0.011
79554,9.665,-0.134,1.343,-0.007,0.008,0.011
79657,9.656,-0.153,1.355,-0.007,0.007,0.011
79760,9.656,-0.141,1.35,-0.007,0.007,0.011
79863,9.673,-0.141,1.355,-0.007,0.007,0.012
79966,9.653,-0.134,1.341,-0.008,0.007,0.011
80069,9.661,-0.144,1.341,-0.007,0.007,0.011
80172,9.661,-0.146,1.348,-0.008,0.007,0.011
80275,9.658,-0.141,1.338,-0.007,0.007,0.011
80378,9.663,-0.141,1.358,-0.007,0.007,0.012
80481,9.661,-0.144,1.336,-0.007,0.007,0.011
80584,9.656,-0.141,1.326,-0.007,0.007,0.011
80687,9.656,-0.139,1.341,-0.007,0.007,0.011
80790,9.661,-0.148,1.329,-0.008,0.007,0.012
80893,9.661,-0.144,1.341,-0.007,0.007,0.011
80996,9.658,-0.148,1.358,-0.007,0.007,0.011
81099,9.67,-0.148,1.326,-0.008,0.007,0.011
81202,9.668,-0.141,1.346,-0.007,0.008,0.011
81305,9.668,-0.146,1.35,-0.008,0.007,0.012
81408,9.651,-0.139,1.355,-0.007,0.008,0.011
81511,9.663,-0.139,1.343,-0.007,0.007,0.012
81614,9.656,-0.136,1.346,-0.008,0.007,0.011
81717,9.651,-0.134,1.353,-0.007,0.007,0.011
81820,9.665,-0.146,1.35,-0.007,0.007,0.012
81923,9.661,-0.141,1.329,-0.007,0.007,0.011
82026,9.661,-0.141,1.346,-0.007,0.007,0.011
82129,9.665,-0.136,1.35,-0.007,0.008,0.011
82232,9.649,-0.134,1.336,-0.007,0.007,0.011
82335,9.673,-0.144,1.353,-0.007,0.007,0.012
82438,9.651,-0.132,1.35,-0.007,0.007,0.011
82541,9.67,-0.136,1.355,-0.007,0.007,0.011
82644,9.653,-0.144,1.358,-0.008,0.007,0.011
82747,9.651,-0.139,1.358,-0.008,0.007,0.012
82850,9.653,-0.129,1.358,-0.007,0.007,0.011
82953,9.653,-0.141,1.36,-0.007,0.007,0.011
83056,9.653,-0.144,1.322,-0.007,0.007,0.011
83159,9.67,-0.139,1.35,-0.007,0.007,0.011
83262,9.661,-0.139,1.343,-0.007,0.007,0.011
83365,9.656,-0.136,1.343,-0.007,0.007,0.011
83468,9.649,-0.132,1.341,-0.007,0.007,0.011
83571,9.649,-0.134,1.35,-0.007,0.007,0.011
83674,9.656,-0.146,1.334,-0.007,0.007,0.011
83777,9.668,-0.144,1.348,-0.007,0.007,0.011
83880,9.656,-0.146,1.346,-0.007,0.007,0.011
83983,9.656,-0.139,1.343,-0.007,0.007,0.011
84086,9.663,-0.139,1.346,-0.007,0.007,0.011
84189,9.651,-0.136,1.338,-0.007,0.007,0.011
84292,9.661,-0.134,1.348,-0.007,0.007,0.011
84395,9.658,-0.139,1.348,-0.007,0.007,0.011
84498,9.665,-0.134,1.35,-0.007,0.007,0.011
84601,9.658,-0.132,1.334,-0.008,0.007,0.012
84704,9.656,-0.153,1.343,-0.007,0.007,0.011
84807,9.668,-0.139,1.355,-0.007,0.007,0.011
84910,9.661,-0.146,1.341,-0.007,0.007,0.011
85013,9.658,-0.136,1.329,-0.007,0.007,0.011
85116,9.661,-0.136,1.35,-0.007,0.007,0.011
85219,9.658,-0.134,1.358,-0.008,0.007,0.012
85322,9.663,-0.151,1.341,-0.007,0.007,0.011
85425,9.663,-0.139,1.35,-0.007,0.007,0.011
85528,9.651,-0.144,1.343,-0.007,0.007,0.011
85631,9.665,-0.129,1.35,-0.007,0.008,0.011
85734,9.661,-0.139,1.365,-0.008,0.007,0.011
85837,9.651,-0.146,1.341,-0.008,0.008,0.011
85940,9.665,-0.141,1.35,-0.007,0.007,0.011
86043,9.653,-0.139,1.343,-0.008,0.007,0.011
86146,9.646,-0.136,1.319,-0.007,0.007,0.011
86249,9.656,-0.136,1.358,-0.007,0.007,0.011
86352,9.663,-0.144,1.334,-0.007,0.007,0.011
86455,9.658,-0.139,1.346,-0.007,0.007,0.011
86558,9.663,-0.144,1.353,-0.007,0.008,0.011
86661,9.651,-0.141,1.341,-0.007,0.007,0.011
86764,9.665,-0.139,1.353,-0.008,0.008,0.011
86867,9.656,-0.141,1.36,-0.007,0.007,0.011
86970,9.646,-0.136,1.341,-0.008,0.007,0.011
87073,9.656,-0.132,1.336,-0.007,0.008,0.012
87176,9.653,-0.134,1.348,-0.007,0.007,0.012
87279,9.651,-0.141,1.329,-0.007,0.008,0.011
87382,9.663,-0.132,1.355,-0.007,0.007,0.011
87485,9.663,-0.141,1.346,-0.007,0.008,0.011
87588,9.661,-0.134,1.334,-0.007,0.008,0.011
87691,9.668,-0.141,1.346,-0.007,0.007,0.011
87794,9.656,-0.141,1.331,-0.007,0.007,0.011
87897,9.661,-0.139,1.343,-0.007,0.008,0.011
88000,9.653,-0.144,1.348,-0.008,0.007,0.012
88103,9.649,-0.141,1.355,-0.007,0.007,0.011
88206,9.658,-0.132,1.353,-0.007,0.007,0.011
88309,9.665,-0.141,1.346,-0.008,0.007,0.011
88412,9.663,-0.141,1.336,-0.007,0.007,0.011
88515,9.656,-0.132,1.346,-0.007,0.007,0.011
88618,9.658,-0.141,1.353,-0.007,0.007,0.011
88721,9.658,-0.136,1.336,-0.007,0.007,0.011
88824,9.658,-0.144,1.343,-0.007,0.008,0.011
88927,9.646,-0.127,1.338,-0.007,0.008,0.011
89030,9.67,-0.136,1.358,-0.008,0.007,0.011
89133,9.661,-0.139,1.355,-0.007,0.007,0.011
89236,9.656,-0.144,1.338,-0.007,0.007,0.011
89339,9.658,-0.132,1.358,-0.007,0.007,0.011
89442,9.658,-0.136,1.353,-0.008,0.007,0.011
89545,9.668,-0.139,1.355,-0.008,0.007,0.011
89648,9.668,-0.136,1.348,-0.007,0.007,0.011
89751,9.649,-0.144,1.324,-0.008,0.007,0.011
89854,9.661,-0.139,1.338,-0.007,0.007,0.011
89957,9.656,-0.139,1.331,-0.007,0.007,0.012
90060,9.656,-0.139,1.343,-0.008,0.007,0.011
90163,9.656,-0.136,1.338,-0.007,0.007,0.011
90266,9.661,-0.141,1.343,-0.007,0.007,0.011
90369,9.661,-0.139,1.343,-0.007,0.007,0.011
90472,9.665,-0.132,1.358,-0.007,0.007,0.011
90575,9.646,-0.139,1.362,-0.008,0.007,0.011
90678,9.661,-0.136,1.353,-0.007,0.007,0.011
90781,9.663,-0.146,1.358,-0.008,0.007,0.012
90884,9.661,-0.146,1.346,-0.007,0.007,0.011
90987,9.553,-0.122,1.106,-0.008,0.116,0.021
91090,9.699,-0.17,1.686,-0.009,0.098,0.019
91193,9.629,-0.16,1.602,-0.008,0.011,0.011
91296,9.629,-0.165,1.607,-0.007,0.008,0.011
91399,9.632,-0.165,1.604,-0.007,0.007,0.011
91502,9.629,-0.17,1.607,-0.007,0.008,0.011
91605,9.639,-0.163,1.611,-0.007,0.007,0.011
91708,9.625,-0.156,1.609,-0.007,0.007,0.011
91811,9.629,-0.172,1.616,-0.007,0.007,0.011
91914,9.627,-0.163,1.602,-0.007,0.007,0.011
92017,9.632,-0.16,1.597,-0.007,0.007,0.011
92120,9.637,-0.153,1.614,-0.007,0.007,0.011
92223,9.627,-0.165,1.604,-0.008,0.007,0.011
92326,9.629,-0.165,1.614,-0.007,0.007,0.011
92429,9.639,-0.148,1.607,-0.007,0.007,0.011
92532,9.629,-0.163,1.604,-0.007,0.007,0.011
92635,9.641,-0.163,1.614,-0.008,0.007,0.011
92738,9.637,-0.156,1.63,-0.007,0.008,0.011
92841,9.634,-0.163,1.609,-0.007,0.007,0.011
92944,9.632,-0.16,1.614,-0.007,0.007,0.01
93047,9.622,-0.158,1.604,-0.007,0.007,0.011
93150,9.632,-0.163,1.611,-0.007,0.007,0.011
93253,9.634,-0.16,1.609,-0.007,0.007,0.011
93356,9.634,-0.168,1.621,-0.008,0.007,0.012
93459,9.625,-0.168,1.59,-0.007,0.007,0.011
93562,9.637,-0.163,1.602,-0.007,0.007,0.011
93665,9.625,-0.168,1.609,-0.007,0.007,0.011
93768,9.637,-0.163,1.609,-0.007,0.007,0.011
93871,9.632,-0.165,1.599,-0.007,0.007,0.011
93974,9.634,-0.16,1.607,-0.007,0.007,0.011
94077,9.632,-0.163,1.604,-0.007,0.007,0.011
94180,9.637,-0.163,1.614,-0.007,0.007,0.012
94283,9.627,-0.16,1.597,-0.007,0.007,0.011
94386,9.629,-0.165,1.602,-0.007,0.007,0.011
94489,9.629,-0.165,1.607,-0.007,0.007,0.011
94592,9.632,-0.168,1.597,-0.007,0.008,0.011
94695,9.634,-0.16,1.597,-0.007,0.007,0.011
94798,9.629,-0.16,1.609,-0.007,0.007,0.011
94901,9.637,-0.163,1.604,-0.007,0.007,0.012
95004,9.634,-0.156,1.614,-0.008,0.007,0.011
95107,9.629,-0.156,1.604,-0.008,0.007,0.012
95210,9.634,-0.165,1.604,-0.007,0.007,0.011
95313,9.627,-0.16,1.607,-0.007,0.007,0.011
95416,9.639,-0.165,1.602,-0.007,0.007,0.011
95519,9.627,-0.17,1.595,-0.007,0.008,0.011
95622,9.627,-0.17,1.604,-0.008,0.007,0.011
95725,9.632,-0.16,1.614,-0.007,0.007,0.011
95828,9.641,-0.16,1.609,-0.007,0.008,0.011
95931,9.634,-0.17,1.611,-0.007,0.007,0.011
96034,9.627,-0.16,1.618,-0.007,0.007,0.011
96137,9.639,-0.151,1.616,-0.007,0.007,0.011
96240,9.627,-0.151,1.607,-0.007,0.007,0.011
96343,9.632,-0.168,1.604,-0.007,0.008,0.011
96446,9.634,-0.163,1.614,-0.007,0.007,0.011
96549,9.639,-0.16,1.604,-0.007,0.007,0.011
96652,9.639,-0.165,1.618,-0.007,0.007,0.011
96755,9.634,-0.168,1.611,-0.008,0.007,0.011
96858,9.639,-0.156,1.607,-0.007,0.007,0.011
96961,9.629,-0.16,1.616,-0.007,0.007,0.011
97064,9.632,-0.163,1.611,-0.008,0.007,0.011
97167,9.634,-0.153,1.626,-0.007,0.007,0.011
97270,9.627,-0.163,1.607,-0.008,0.007,0.011
97373,9.622,-0.163,1.585,-0.007,0.007,0.011
97476,9.639,-0.158,1.599,-0.007,0.007,0.011
97579,9.629,-0.156,1.599,-0.007,0.007,0.011
97682,9.639,-0.16,1.592,-0.007,0.007,0.011
97785,9.634,-0.16,1.614,-0.007,0.007,0.012
97888,9.627,-0.156,1.614,-0.007,0.007,0.011
97991,9.632,-0.158,1.604,-0.008,0.007,0.011
98094,9.637,-0.165,1.611,-0.007,0.007,0.011
98197,9.627,-0.163,1.59,-0.007,0.007,0.011
98300,9.629,-0.16,1.618,-0.007,0.007,0.011
98403,9.632,-0.16,1.609,-0.008,0.007,0.011
98506,9.632,-0.163,1.597,-0.007,0.007,0.011
98609,9.637,-0.148,1.611,-0.007,0.008,0.011
98712,9.627,-0.17,1.614,-0.007,0.007,0.012
98815,9.637,-0.168,1.616,-0.007,0.007,0.011
98918,9.627,-0.153,1.599,-0.007,0.007,0.011
99021,9.615,-0.158,1.602,-0.007,0.007,0.011
99124,9.639,-0.172,1.604,-0.007,0.007,0.011
99227,9.632,-0.16,1.595,-0.008,0.007,0.011
99330,9.629,-0.158,1.592,-0.007,0.008,0.011
99433,9.629,-0.16,1.611,-0.007,0.007,0.011
99536,9.62,-0.16,1.614,-0.008,0.007,0.011
99639,9.641,-0.163,1.599,-0.007,0.008,0.011
99742,9.634,-0.158,1.611,-0.007,0.007,0.011
99845,9.629,-0.158,1.602,-0.007,0.007,0.011
99948,9.632,-0.16,1.621,-0.007,0.007,0.011
100051,9.629,-0.168,1.616,-0.007,0.007,0.011
100154,9.634,-0.163,1.604,-0.007,0.007,0.011
100257,9.639,-0.153,1.604,-0.007,0.008,0.011
100360,9.625,-0.158,1.618,-0.008,0.007,0.011
100463,9.629,-0.156,1.592,-0.008,0.008,0.011
100566,9.637,-0.165,1.607,-0.008,0.007,0.011
100669,9.629,-0.17,1.602,-0.008,0.007,0.011
100772,9.632,-0.16,1.592,-0.007,0.008,0.011
100875,9.634,-0.165,1.626,-0.007,0.007,0.012
100978,9.625,-0.16,1.597,-0.007,0.007,0.011
101081,9.632,-0.158,1.607,-0.007,0.007,0.011
101184,9.627,-0.158,1.614,-0.007,0.007,0.011
101287,9.639,-0.153,1.604,-0.008,0.008,0.011
101390,9.637,-0.17,1.614,-0.008,0.007,0.011
101493,9.627,-0.168,1.609,-0.008,0.007,0.011
101596,9.634,-0.158,1.597,-0.007,0.007,0.011
101699,9.634,-0.163,1.609,-0.007,0.007,0.011
101802,9.629,-0.156,1.607,-0.007,0.007,0.011
101905,9.644,-0.148,1.609,-0.007,0.007,0.011
102008,9.634,-0.168,1.611,-0.006,0.007,0.011
102111,9.632,-0.17,1.602,-0.007,0.008,0.011
102214,9.625,-0.163,1.607,-0.007,0.007,0.011
102317,9.632,-0.156,1.611,-0.008,0.007,0.012
102420,9.627,-0.163,1.602,-0.007,0.007,0.011
102523,9.637,-0.16,1.602,-0.007,0.007,0.011
102626,9.625,-0.163,1.607,-0.007,0.007,0.011
102729,9.632,-0.163,1.609,-0.007,0.007,0.011
102832,9.637,-0.17,1.604,-0.007,0.007,0.011
102935,9.627,-0.156,1.614,-0.008,0.008,0.011
103038,9.639,-0.163,1.609,-0.007,0.007,0.011
103141,9.627,-0.165,1.626,-0.008,0.007,0.011
103244,9.622,-0.175,1.599,-0.008,0.008,0.011
103347,9.632,-0.163,1.626,-0.007,0.007,0.011
103450,9.629,-0.168,1.597,-0.007,0.007,0.011
103553,9.615,-0.165,1.604,-0.007,0.007,0.012
103656,9.632,-0.165,1.604,-0.007,0.008,0.011
103759,9.629,-0.158,1.623,-0.007,0.007,0.011
103862,9.634,-0.16,1.595,-0.007,0.008,0.011
103965,9.637,-0.153,1.604,-0.008,0.007,0.011
104068,9.629,-0.16,1.609,-0.007,0.007,0.011
104171,9.62,-0.158,1.614,-0.007,0.007,0.012
104274,9.632,-0.158,1.611,-0.007,0.007,0.011
104377,9.634,-0.165,1.609,-0.007,0.007,0.011
104480,9.637,-0.17,1.607,-0.007,0.008,0.011
104583,9.625,-0.16,1.616,-0.007,0.007,0.011
104686,9.632,-0.153,1.602,-0.007,0.008,0.011
104789,9.632,-0.156,1.607,-0.007,0.007,0.011
104892,9.627,-0.168,1.607,-0.007,0.007,0.011
104995,9.637,-0.16,1.607,-0.007,0.007,0.011
105098,9.639,-0.17,1.611,-0.007,0.007,0.011
105201,9.629,-0.163,1.597,-0.007,0.007,0.011
105304,9.634,-0.16,1.611,-0.007,0.007,0.011
105407,9.629,-0.163,1.614,-0.007,0.008,0.011
105510,9.622,-0.156,1.611,-0.007,0.008,0.011
105613,9.637,-0.16,1.621,-0.007,0.007,0.011
105716,9.632,-0.16,1.597,-0.007,0.008,0.011
105819,9.629,-0.16,1.623,-0.007,0.008,0.011
105922,9.634,-0.17,1.604,-0.007,0.007,0.011
106025,9.634,-0.156,1.618,-0.008,0.007,0.012
106128,9.629,-0.156,1.609,-0.007,0.007,0.011
106231,9.627,-0.163,1.626,-0.007,0.007,0.011
106334,9.632,-0.151,1.614,-0.007,0.008,0.011
106437,9.632,-0.168,1.616,-0.007,0.007,0.011
106540,9.629,-0.156,1.59,-0.007,0.007,0.011
106643,9.632,-0.16,1.616,-0.007,0.007,0.01
106746,9.632,-0.163,1.614,-0.007,0.007,0.011
106849,9.637,-0.17,1.614,-0.007,0.007,0.011
106952,9.637,-0.156,1.609,-0.007,0.007,0.011
107055,9.634,-0.172,1.614,-0.007,0.007,0.011
107158,9.634,-0.158,1.609,-0.007,0.007,0.011
107261,9.632,-0.156,1.614,-0.007,0.007,0.011
107364,9.639,-0.165,1.621,-0.007,0.007,0.011
107467,9.632,-0.158,1.628,-0.007,0.007,0.011
107570,9.639,-0.165,1.626,-0.007,0.007,0.011
107673,9.622,-0.168,1.609,-0.007,0.007,0.011
107776,9.637,-0.168,1.604,-0.007,0.007,0.011
107879,9.625,-0.168,1.607,-0.007,0.007,0.011
107982,9.627,-0.172,1.599,-0.007,0.007,0.011
108085,9.637,-0.16,1.618,-0.007,0.007,0.011
108188,9.634,-0.172,1.611,-0.007,0.007,0.011
108291,9.639,-0.168,1.626,-0.007,0.007,0.011
108394,9.632,-0.168,1.63,-0.008,0.007,0.011
108497,9.627,-0.172,1.609,-0.007,0.007,0.011
108600,9.629,-0.165,1.607,-0.007,0.007,0.011
108703,9.639,-0.168,1.604,-0.007,0.007,0.011
108806,9.646,-0.163,1.618,-0.007,0.007,0.011
108909,9.639,-0.168,1.618,-0.007,0.007,0.011
109012,9.632,-0.163,1.623,-0.007,0.007,0.012
109115,9.622,-0.16,1.604,-0.007,0.007,0.011
109218,9.639,-0.168,1.63,-0.007,0.008,0.011
109321,9.629,-0.165,1.609,-0.008,0.007,0.011
109424,9.634,-0.158,1.618,-0.007,0.007,0.011
109527,9.634,-0.151,1.618,-0.007,0.008,0.011
109630,9.632,-0.177,1.607,-0.007,0.007,0.011
109733,9.629,-0.16,1.609,-0.007,0.007,0.011
109836,9.634,-0.16,1.616,-0.008,0.007,0.011
109939,9.62,-0.165,1.602,-0.007,0.007,0.011
110042,9.641,-0.158,1.611,-0.007,0.007,0.011
110145,9.627,-0.18,1.595,-0.007,0.007,0.011
110248,9.622,-0.158,1.597,-0.007,0.007,0.011
110351,9.625,-0.16,1.623,-0.007,0.007,0.011
110454,9.632,-0.168,1.626,-0.007,0.007,0.011
110557,9.644,-0.165,1.614,-0.007,0.007,0.011
110660,9.634,-0.153,1.595,-0.007,0.007,0.011
110763,9.632,-0.168,1.599,-0.007,0.007,0.011
110866,9.632,-0.165,1.611,-0.007,0.008,0.012
110969,9.637,-0.168,1.614,-0.007,0.008,0.011
111072,9.632,-0.165,1.599,-0.007,0.008,0.011
111175,9.634,-0.156,1.621,-0.007,0.007,0.011
111278,9.625,-0.17,1.623,-0.007,0.007,0.011
111381,9.627,-0.156,1.623,-0.007,0.007,0.011
111484,9.641,-0.158,1.63,-0.007,0.007,0.011
111587,9.634,-0.172,1.599,-0.007,0.007,0.011
111690,9.627,-0.163,1.587,-0.007,0.007,0.011
111793,9.634,-0.165,1.609,-0.007,0.008,0.011
111896,9.629,-0.168,1.616,-0.008,0.007,0.011
111999,9.634,-0.165,1.607,-0.007,0.007,0.011
112102,9.632,-0.16,1.63,-0.008,0.008,0.011
112205,9.632,-0.163,1.609,-0.008,0.007,0.011
112308,9.634,-0.153,1.607,-0.007,0.007,0.011
112411,9.639,-0.17,1.621,-0.007,0.007,0.011
112514,9.622,-0.165,1.618,-0.007,0.007,0.011
112617,9.641,-0.163,1.611,-0.007,0.007,0.011
112720,9.627,-0.165,1.609,-0.008,0.007,0.01
112823,9.627,-0.168,1.611,-0.006,0.007,0.011
112926,9.637,-0.168,1.614,-0.007,0.008,0.012
113029,9.627,-0.168,1.626,-0.007,0.008,0.011
113132,9.634,-0.158,1.609,-0.007,0.007,0.011
113235,9.62,-0.165,1.618,-0.007,0.007,0.011
113338,9.632,-0.165,1.618,-0.007,0.007,0.011
113441,9.629,-0.156,1.618,-0.007,0.007,0.011
113544,9.634,-0.16,1.621,-0.008,0.008,0.012
113647,9.629,-0.168,1.614,-0.007,0.008,0.011
113750,9.632,-0.158,1.604,-0.007,0.007,0.011
113853,9.637,-0.153,1.611,-0.007,0.007,0.011
113956,9.629,-0.16,1.616,-0.007,0.007,0.01
114059,9.632,-0.158,1.614,-0.007,0.007,0.011
114162,9.622,-0.165,1.614,-0.007,0.007,0.011
114265,9.632,-0.156,1.628,-0.007,0.007,0.011
114368,9.634,-0.158,1.621,-0.007,0.007,0.011
114471,9.634,-0.165,1.604,-0.007,0.007,0.011
114574,9.634,-0.17,1.614,-0.007,0.007,0.011
114677,9.632,-0.165,1.618,-0.007,0.007,0.011
114780,9.634,-0.163,1.609,-0.007,0.007,0.011
114883,9.625,-0.163,1.618,-0.007,0.007,0.011
114986,9.632,-0.163,1.63,-0.007,0.007,0.012
115089,9.634,-0.165,1.621,-0.007,0.007,0.011
115192,9.637,-0.16,1.602,-0.007,0.007,0.011
115295,9.634,-0.163,1.595,-0.008,0.007,0.011
115398,9.637,-0.158,1.621,-0.007,0.007,0.011
115501,9.632,-0.16,1.609,-0.007,0.007,0.011
115604,9.632,-0.16,1.614,-0.007,0.007,0.011
115707,9.634,-0.168,1.623,-0.007,0.007,0.011
115810,9.632,-0.165,1.626,-0.007,0.007,0.011
115913,9.632,-0.16,1.604,-0.007,0.007,0.011
116016,9.629,-0.16,1.621,-0.007,0.008,0.011
116119,9.625,-0.158,1.609,-0.008,0.007,0.011
116222,9.627,-0.165,1.623,-0.007,0.007,0.011
116325,9.634,-0.17,1.628,-0.007,0.007,0.011
116428,9.625,-0.168,1.614,-0.007,0.007,0.011
116531,9.634,-0.151,1.609,-0.007,0.007,0.011
116634,9.627,-0.156,1.609,-0.007,0.007,0.011
116737,9.627,-0.165,1.614,-0.008,0.007,0.011
116840,9.634,-0.156,1.614,-0.007,0.007,0.011
116943,9.632,-0.153,1.599,-0.008,0.008,0.011
117046,9.634,-0.156,1.604,-0.007,0.007,0.011
117149,9.632,-0.158,1.616,-0.007,0.007,0.011
117252,9.629,-0.165,1.607,-0.007,0.006,0.011
117355,9.627,-0.16,1.621,-0.007,0.007,0.011
117458,9.637,-0.17,1.597,-0.007,0.007,0.011
117561,9.632,-0.156,1.623,-0.007,0.007,0.011
117664,9.634,-0.165,1.628,-0.007,0.007,0.011
117767,9.634,-0.163,1.614,-0.008,0.007,0.011
117870,9.629,-0.163,1.611,-0.007,0.007,0.011
117973,9.629,-0.165,1.626,-0.007,0.007,0.011
118076,9.625,-0.17,1.614,-0.007,0.007,0.011
118179,9.637,-0.16,1.616,-0.007,0.007,0.011
118282,9.629,-0.168,1.63,-0.007,0.007,0.011
118385,9.627,-0.163,1.618,-0.007,0.007,0.011
118488,9.632,-0.156,1.626,-0.007,0.007,0.011
118591,9.625,-0.168,1.616,-0.008,0.007,0.011
118694,9.632,-0.163,1.607,-0.007,0.007,0.011
118797,9.637,-0.165,1.616,-0.007,0.007,0.011
118900,9.641,-0.165,1.616,-0.007,0.007,0.011
119003,9.634,-0.16,1.618,-0.007,0.007,0.011
119106,9.634,-0.17,1.609,-0.007,0.007,0.011
119209,9.634,-0.168,1.599,-0.007,0.007,0.011
119312,9.629,-0.16,1.618,-0.007,0.007,0.011
119415,9.618,-0.165,1.602,-0.007,0.007,0.011
119518,9.625,-0.165,1.618,-0.007,0.007,0.011
119621,9.632,-0.163,1.623,-0.007,0.007,0.011
119724,9.632,-0.16,1.621,-0.007,0.007,0.011
119827,9.632,-0.163,1.611,-0.007,0.007,0.011
119930,9.627,-0.151,1.614,-0.007,0.007,0.011
120033,9.629,-0.165,1.623,-0.007,0.007,0.011
120136,9.641,-0.16,1.633,-0.007,0.008,0.011
120239,9.632,-0.156,1.621,-0.007,0.007,0.011
120342,9.629,-0.16,1.611,-0.007,0.007,0.011
120445,9.632,-0.153,1.623,-0.007,0.007,0.011
120548,9.629,-0.158,1.611,-0.007,0.007,0.011
120651,9.632,-0.153,1.616,-0.007,0.007,0.011
120754,9.637,-0.165,1.623,-0.007,0.007,0.011
120857,9.618,-0.165,1.616,-0.007,0.007,0.011
120960,9.637,-0.153,1.611,-0.007,0.007,0.012
121063,9.632,-0.165,1.614,-0.008,0.007,0.012
121166,9.632,-0.158,1.597,-0.007,0.007,0.011
121269,9.639,-0.163,1.616,-0.007,0.007,0.011
121372,9.625,-0.168,1.609,-0.007,0.007,0.011
121475,9.634,-0.168,1.604,-0.007,0.007,0.011
121578,9.632,-0.158,1.609,-0.007,0.007,0.011
121681,9.629,-0.165,1.616,-0.007,0.007,0.011
121784,9.625,-0.165,1.628,-0.007,0.007,0.011
121887,9.632,-0.156,1.633,-0.007,0.007,0.011
121990,9.625,-0.168,1.621,-0.007,0.007,0.01
122093,9.629,-0.165,1.614,-0.007,0.007,0.011
122196,9.641,-0.16,1.618,-0.007,0.007,0.011
122299,9.622,-0.163,1.607,-0.007,0.007,0.011
122402,9.627,-0.151,1.609,-0.006,0.007,0.011
122505,9.629,-0.168,1.618,-0.007,0.007,0.011
122608,9.622,-0.153,1.614,-0.008,0.007,0.011
122711,9.641,-0.158,1.618,-0.007,0.007,0.011
122814,9.632,-0.156,1.616,-0.007,0.007,0.011
122917,9.634,-0.165,1.618,-0.007,0.007,0.011
123020,9.632,-0.168,1.616,-0.007,0.007,0.011
123123,9.622,-0.16,1.618,-0.007,0.007,0.011
123226,9.632,-0.163,1.609,-0.007,0.007,0.011
123329,9.632,-0.172,1.607,-0.007,0.007,0.011
123432,9.627,-0.16,1.604,-0.007,0.007,0.011
123535,9.641,-0.16,1.607,-0.007,0.007,0.011
123638,9.632,-0.16,1.614,-0.007,0.007,0.011
123741,9.629,-0.163,1.618,-0.007,0.007,0.011
123844,9.634,-0.158,1.614,-0.008,0.007,0.011
123947,9.634,-0.163,1.621,-0.007,0.007,0.011
124050,9.646,-0.156,1.614,-0.007,0.007,0.011
124153,9.632,-0.168,1.607,-0.007,0.007,0.011
124256,9.634,-0.175,1.614,-0.007,0.007,0.011
124359,9.639,-0.158,1.611,-0.007,0.008,0.011
124462,9.629,-0.165,1.604,-0.008,0.007,0.011
124565,9.627,-0.163,1.607,-0.007,0.007,0.011
124668,9.629,-0.163,1.633,-0.007,0.007,0.011
124771,9.632,-0.168,1.614,-0.008,0.007,0.011
124874,9.629,-0.156,1.623,-0.007,0.007,0.011
124977,9.632,-0.156,1.616,-0.007,0.007,0.011
125080,9.62,-0.165,1.621,-0.007,0.007,0.011
125183,9.634,-0.158,1.604,-0.007,0.007,0.011
125286,9.627,-0.17,1.614,-0.007,0.007,0.012
125389,9.632,-0.16,1.621,-0.007,0.007,0.011
125492,9.627,-0.165,1.621,-0.007,0.007,0.011
125595,9.627,-0.168,1.621,-0.007,0.007,0.011
125698,9.637,-0.148,1.604,-0.007,0.007,0.011
125801,9.637,-0.165,1.621,-0.007,0.007,0.011
125904,9.622,-0.165,1.614,-0.007,0.008,0.011
126007,9.634,-0.156,1.623,-0.007,0.008,0.011
126110,9.632,-0.153,1.599,-0.007,0.007,0.011
126213,9.634,-0.165,1.614,-0.007,0.007,0.011
126316,9.629,-0.165,1.621,-0.007,0.007,0.011
126419,9.634,-0.172,1.628,-0.007,0.007,0.011
126522,9.632,-0.165,1.63,-0.007,0.007,0.011
126625,9.646,-0.16,1.611,-0.007,0.008,0.011
126728,9.625,-0.16,1.616,-0.007,0.007,0.011
126831,9.625,-0.163,1.626,-0.007,0.007,0.011
126934,9.634,-0.158,1.618,-0.006,0.007,0.011
127037,9.629,-0.165,1.616,-0.007,0.007,0.011
127140,9.632,-0.156,1.626,-0.007,0.007,0.011
127243,9.625,-0.158,1.628,-0.007,0.007,0.011
127346,9.627,-0.16,1.623,-0.007,0.007,0.011
127449,9.637,-0.153,1.616,-0.006,0.007,0.011
127552,9.629,-0.17,1.607,-0.008,0.007,0.011
127655,9.632,-0.163,1.604,-0.008,0.007,0.011
127758,9.634,-0.163,1.618,-0.008,0.007,0.011
127861,9.632,-0.163,1.616,-0.007,0.007,0.011
127964,9.629,-0.156,1.616,-0.007,0.007,0.011
128067,9.634,-0.158,1.616,-0.007,0.007,0.011
128170,9.625,-0.16,1.604,-0.007,0.007,0.011
128273,9.644,-0.156,1.618,-0.007,0.007,0.011
128376,9.622,-0.16,1.63,-0.007,0.007,0.011
128479,9.632,-0.175,1.616,-0.007,0.006,0.011
128582,9.639,-0.156,1.611,-0.007,0.007,0.011
128685,9.637,-0.163,1.618,-0.007,0.007,0.011
128788,9.634,-0.168,1.621,-0.007,0.007,0.011
128891,9.639,-0.165,1.616,-0.007,0.007,0.011
128994,9.629,-0.163,1.611,-0.007,0.007,0.011
129097,9.632,-0.158,1.614,-0.007,0.007,0.011
129200,9.629,-0.163,1.623,-0.007,0.007,0.011
129303,9.629,-0.153,1.614,-0.007,0.007,0.011
129406,9.627,-0.165,1.626,-0.007,0.007,0.011
129509,9.639,-0.163,1.623,-0.007,0.007,0.011
129612,9.639,-0.153,1.614,-0.007,0.007,0.011
129715,9.641,-0.158,1.616,-0.006,0.007,0.011
129818,9.639,-0.158,1.618,-0.007,0.007,0.011
129921,9.634,-0.156,1.609,-0.007,0.007,0.011
130024,9.629,-0.163,1.618,-0.007,0.007,0.011
130127,9.627,-0.153,1.618,-0.007,0.007,0.011
130230,9.634,-0.163,1.618,-0.007,0.007,0.011
130333,9.634,-0.165,1.616,-0.007,0.007,0.011
130436,9.632,-0.163,1.607,-0.007,0.007,0.011
130539,9.637,-0.16,1.607,-0.007,0.007,0.011
130642,9.627,-0.172,1.618,-0.007,0.007,0.011
130745,9.627,-0.16,1.614,-0.007,0.008,0.011
130848,9.637,-0.165,1.611,-0.007,0.007,0.011
130951,9.632,-0.165,1.607,-0.007,0.007,0.011
131054,9.625,-0.168,1.611,-0.008,0.007,0.011
131157,9.632,-0.17,1.63,-0.008,0.007,0.011
131260,9.618,-0.165,1.614,-0.008,0.007,0.011
131363,9.639,-0.153,1.626,-0.007,0.007,0.011
131466,9.632,-0.165,1.623,-0.007,0.007,0.011
131569,9.639,-0.168,1.616,-0.007,0.007,0.011
131672,9.632,-0.16,1.628,-0.007,0.007,0.011
131775,9.627,-0.163,1.633,-0.007,0.007,0.011
131878,9.634,-0.156,1.626,-0.007,0.007,0.011
131981,9.629,-0.163,1.633,-0.007,0.007,0.011
132084,9.627,-0.168,1.63,-0.007,0.007,0.011
132187,9.632,-0.16,1.616,-0.007,0.007,0.011
132290,9.641,-0.175,1.616,-0.007,0.007,0.011
132393,9.637,-0.175,1.609,-0.007,0.007,0.011
132496,9.637,-0.17,1.623,-0.007,0.007,0.01
132599,9.639,-0.158,1.604,-0.007,0.007,0.011
132702,9.632,-0.163,1.623,-0.007,0.007,0.011
132805,9.639,-0.153,1.614,-0.007,0.008,0.011
132908,9.62,-0.16,1.621,-0.007,0.007,0.011
133011,9.637,-0.16,1.618,-0.007,0.007,0.011
133114,9.625,-0.168,1.621,-0.007,0.007,0.011
133217,9.639,-0.172,1.609,-0.007,0.007,0.011
133320,9.637,-0.165,1.63,-0.006,0.007,0.011
133423,9.634,-0.165,1.626,-0.007,0.007,0.011
133526,9.629,-0.165,1.616,-0.007,0.007,0.011
133629,9.637,-0.153,1.626,-0.007,0.008,0.011
133732,9.627,-0.16,1.607,-0.007,0.007,0.011
133835,9.639,-0.158,1.611,-0.007,0.007,0.011
133938,9.632,-0.16,1.611,-0.007,0.007,0.011
134041,9.627,-0.163,1.609,-0.007,0.007,0.011
134144,9.637,-0.158,1.611,-0.007,0.007,0.011
134247,9.632,-0.163,1.618,-0.007,0.007,0.012
134350,9.632,-0.165,1.614,-0.007,0.007,0.011
134453,9.644,-0.16,1.616,-0.006,0.007,0.011
134556,9.627,-0.165,1.618,-0.007,0.007,0.011
134659,9.637,-0.163,1.618,-0.007,0.007,0.011
134762,9.637,-0.172,1.623,-0.007,0.007,0.011
134865,9.622,-0.163,1.633,-0.007,0.007,0.011
134968,9.625,-0.168,1.616,-0.007,0.008,0.011
135071,9.632,-0.163,1.614,-0.007,0.007,0.012
135174,9.634,-0.163,1.614,-0.007,0.007,0.011
135277,9.629,-0.156,1.63,-0.007,0.007,0.011
135380,9.625,-0.165,1.63,-0.007,0.007,0.011
135483,9.634,-0.168,1.616,-0.007,0.007,0.011
135586,9.629,-0.177,1.616,-0.007,0.007,0.011
135689,9.634,-0.156,1.614,-0.007,0.008,0.011
135792,9.629,-0.168,1.602,-0.007,0.007,0.011
135895,9.634,-0.16,1.626,-0.007,0.007,0.011
135998,9.629,-0.163,1.623,-0.007,0.007,0.011
136101,9.627,-0.163,1.623,-0.007,0.007,0.011
136204,9.629,-0.16,1.611,-0.008,0.007,0.011
136307,9.62,-0.163,1.609,-0.007,0.007,0.011
136410,9.634,-0.163,1.638,-0.007,0.007,0.011
136513,9.625,-0.165,1.623,-0.007,0.007,0.011
136616,9.639,-0.165,1.616,-0.007,0.007,0.011
136719,9.637,-0.163,1.611,-0.007,0.007,0.011
136822,9.639,-0.163,1.621,-0.007,0.007,0.011
136925,9.629,-0.165,1.614,-0.007,0.007,0.011
137028,9.634,-0.165,1.609,-0.007,0.007,0.011
137131,9.627,-0.165,1.614,-0.007,0.007,0.011
137234,9.634,-0.158,1.621,-0.007,0.007,0.011
137337,9.627,-0.168,1.626,-0.007,0.007,0.011
137440,9.629,-0.158,1.607,-0.007,0.007,0.011
137543,9.629,-0.165,1.626,-0.007,0.007,0.011
137646,9.625,-0.17,1.638,-0.007,0.007,0.011
137749,9.629,-0.165,1.607,-0.007,0.007,0.011
137852,9.632,-0.16,1.607,-0.007,0.007,0.011
137955,9.627,-0.172,1.621,-0.007,0.007,0.011
138058,9.641,-0.163,1.623,-0.007,0.007,0.011
138161,9.632,-0.163,1.616,-0.007,0.007,0.011
138264,9.625,-0.163,1.621,-0.007,0.007,0.011
138367,9.634,-0.165,1.602,-0.007,0.007,0.011
138470,9.627,-0.165,1.607,-0.007,0.007,0.011
138573,9.62,-0.16,1.607,-0.007,0.007,0.011
138676,9.644,-0.168,1.616,-0.007,0.007,0.011
138779,9.627,-0.165,1.628,-0.007,0.007,0.011
138882,9.639,-0.151,1.616,-0.007,0.007,0.011
138985,9.627,-0.16,1.628,-0.007,0.007,0.011
139088,9.622,-0.175,1.626,-0.007,0.008,0.011
139191,9.641,-0.163,1.621,-0.007,0.007,0.011
139294,9.637,-0.16,1.609,-0.007,0.007,0.011
139397,9.625,-0.16,1.602,-0.007,0.007,0.011
139500,9.637,-0.165,1.614,-0.007,0.007,0.011
139603,9.637,-0.16,1.616,-0.007,0.007,0.011
139706,9.627,-0.168,1.614,-0.007,0.007,0.011
139809,9.632,-0.165,1.611,-0.007,0.008,0.011
139912,9.637,-0.168,1.623,-0.007,0.007,0.011
140015,9.627,-0.16,1.623,-0.007,0.007,0.011
140118,9.627,-0.163,1.611,-0.007,0.007,0.011
140221,9.634,-0.158,1.611,-0.007,0.007,0.011
140324,9.627,-0.16,1.621,-0.007,0.007,0.011
140427,9.634,-0.165,1.63,-0.007,0.007,0.011
140530,9.639,-0.16,1.614,-0.007,0.007,0.011
140633,9.641,-0.158,1.618,-0.007,0.008,0.011
140736,9.622,-0.165,1.626,-0.007,0.007,0.011
140839,9.627,-0.16,1.607,-0.007,0.007,0.011
140942,9.641,-0.17,1.611,-0.007,0.007,0.011
141045,9.629,-0.17,1.614,-0.007,0.007,0.011
141148,9.632,-0.168,1.609,-0.007,0.007,0.011
141251,9.644,-0.17,1.63,-0.007,0.007,0.011
141354,9.625,-0.165,1.614,-0.007,0.007,0.011
141457,9.632,-0.168,1.614,-0.007,0.007,0.011
141560,9.627,-0.163,1.623,-0.007,0.007,0.011
141663,9.637,-0.165,1.626,-0.007,0.007,0.011
141766,9.637,-0.16,1.63,-0.007,0.007,0.011
141869,9.639,-0.163,1.609,-0.007,0.007,0.011
141972,9.637,-0.17,1.623,-0.007,0.007,0.011
142075,9.639,-0.165,1.623,-0.007,0.007,0.01
142178,9.62,-0.156,1.626,-0.007,0.007,0.011
142281,9.629,-0.172,1.623,-0.007,0.007,0.011
142384,9.632,-0.165,1.628,-0.007,0.007,0.011
142487,9.634,-0.17,1.621,-0.007,0.007,0.011
142590,9.634,-0.163,1.618,-0.007,0.007,0.011
142693,9.634,-0.156,1.618,-0.007,0.007,0.012
142796,9.641,-0.165,1.621,-0.007,0.007,0.011
142899,9.641,-0.16,1.607,-0.007,0.007,0.011
143002,9.625,-0.177,1.626,-0.008,0.007,0.011
143105,9.62,-0.165,1.611,-0.007,0.007,0.011
143208,9.632,-0.165,1.616,-0.007,0.007,0.011
143311,9.62,-0.163,1.618,-0.007,0.007,0.011
143414,9.632,-0.158,1.614,-0.006,0.008,0.011
143517,9.62,-0.165,1.621,-0.007,0.007,0.011
143620,9.622,-0.17,1.621,-0.007,0.007,0.011
143723,9.646,-0.16,1.635,-0.007,0.008,0.011
143826,9.629,-0.168,1.616,-0.008,0.007,0.011
143929,9.637,-0.163,1.626,-0.007,0.007,0.011
144032,9.637,-0.16,1.626,-0.007,0.007,0.011
144135,9.632,-0.17,1.626,-0.007,0.007,0.011
144238,9.629,-0.163,1.623,-0.007,0.007,0.011
144341,9.637,-0.153,1.618,-0.006,0.007,0.011
144444,9.62,-0.16,1.626,-0.007,0.007,0.01
144547,9.641,-0.158,1.621,-0.007,0.007,0.011
144650,9.627,-0.165,1.609,-0.007,0.007,0.011
144753,9.629,-0.163,1.614,-0.007,0.007,0.011
144856,9.625,-0.168,1.633,-0.007,0.007,0.011
144959,9.632,-0.165,1.626,-0.007,0.007,0.011
145062,9.632,-0.165,1.621,-0.007,0.007,0.011
145165,9.625,-0.17,1.618,-0.007,0.007,0.011
145268,9.627,-0.165,1.64,-0.007,0.008,0.011
145371,9.641,-0.158,1.623,-0.007,0.007,0.011
145474,9.639,-0.16,1.611,-0.008,0.007,0.011
145577,9.622,-0.16,1.609,-0.007,0.007,0.011
145680,9.634,-0.148,1.618,-0.007,0.007,0.01
145783,9.641,-0.158,1.633,-0.008,0.007,0.011
145886,9.637,-0.163,1.599,-0.007,0.007,0.011
145989,9.632,-0.168,1.618,-0.007,0.007,0.011
146092,9.629,-0.165,1.609,-0.007,0.007,0.012
146195,9.632,-0.165,1.618,-0.007,0.007,0.011
146298,9.625,-0.165,1.621,-0.007,0.007,0.011
146401,9.622,-0.163,1.623,-0.007,0.007,0.011
146504,9.637,-0.165,1.626,-0.007,0.007,0.011
146607,9.629,-0.165,1.633,-0.007,0.007,0.011
146710,9.632,-0.165,1.616,-0.007,0.007,0.011
146813,9.627,-0.158,1.628,-0.006,0.007,0.011
146916,9.627,-0.168,1.623,-0.007,0.007,0.011
147019,9.637,-0.163,1.618,-0.007,0.007,0.011
147122,9.637,-0.163,1.633,-0.007,0.007,0.012
147225,9.622,-0.168,1.618,-0.007,0.007,0.011
147328,9.634,-0.163,1.623,-0.006,0.007,0.011
147431,9.627,-0.172,1.626,-0.007,0.007,0.011
147534,9.632,-0.163,1.618,-0.007,0.007,0.011
147637,9.637,-0.153,1.616,-0.007,0.007,0.011
147740,9.629,-0.168,1.618,-0.006,0.007,0.011
147843,9.627,-0.158,1.628,-0.006,0.007,0.011
147946,9.634,-0.165,1.618,-0.007,0.007,0.011
148049,9.634,-0.165,1.607,-0.007,0.007,0.011
148152,9.625,-0.165,1.611,-0.006,0.007,0.011
148255,9.627,-0.153,1.609,-0.007,0.007,0.011
148358,9.627,-0.163,1.607,-0.007,0.007,0.011
148461,9.639,-0.168,1.616,-0.007,0.007,0.011
148564,9.634,-0.163,1.611,-0.007,0.007,0.011
148667,9.634,-0.16,1.63,-0.007,0.007,0.011
148770,9.634,-0.163,1.626,-0.007,0.007,0.011
148873,9.634,-0.165,1.626,-0.007,0.007,0.011
148976,9.632,-0.16,1.618,-0.007,0.007,0.011
149079,9.629,-0.16,1.638,-0.007,0.007,0.011
149182,9.634,-0.172,1.628,-0.007,0.007,0.011
149285,9.639,-0.148,1.621,-0.007,0.007,0.011
149388,9.625,-0.172,1.633,-0.007,0.007,0.011
149491,9.627,-0.165,1.628,-0.007,0.007,0.011
149594,9.637,-0.165,1.623,-0.007,0.007,0.011
149697,9.634,-0.163,1.607,-0.007,0.007,0.011
149800,9.629,-0.163,1.611,-0.007,0.007,0.01
149903,9.634,-0.165,1.623,-0.007,0.007,0.011
150006,9.627,-0.168,1.621,-0.007,0.007,0.011
150109,9.649,-0.153,1.616,-0.007,0.007,0.011
150212,9.634,-0.16,1.628,-0.007,0.007,0.011
150315,9.627,-0.16,1.63,-0.007,0.007,0.011
150418,9.637,-0.17,1.618,-0.007,0.006,0.011
150521,9.629,-0.165,1.614,-0.007,0.008,0.011
150624,9.625,-0.163,1.604,-0.007,0.007,0.011
150727,9.625,-0.158,1.623,-0.006,0.007,0.011
150830,9.634,-0.158,1.63,-0.007,0.007,0.011
150933,9.639,-0.17,1.616,-0.007,0.007,0.01
151036,9.608,-0.158,1.741,-0.005,0.29,0.035
151139,9.603,-0.189,1.994,-0.007,0.046,0.014
151242,9.584,-0.194,1.968,-0.007,0.009,0.011
151345,9.582,-0.194,1.966,-0.007,0.006,0.011
151448,9.591,-0.189,1.954,-0.007,0.007,0.011
151551,9.579,-0.196,1.966,-0.007,0.007,0.011
151654,9.582,-0.204,1.963,-0.007,0.007,0.011
151757,9.584,-0.194,1.954,-0.007,0.007,0.011
151860,9.591,-0.192,1.958,-0.007,0.007,0.011
151963,9.582,-0.189,1.946,-0.007,0.007,0.011
152066,9.586,-0.196,1.944,-0.007,0.007,0.011
152169,9.598,-0.192,1.956,-0.007,0.007,0.011
152272,9.584,-0.182,1.963,-0.007,0.007,0.011
152375,9.584,-0.192,1.946,-0.007,0.007,0.01
152478,9.586,-0.196,1.963,-0.007,0.007,0.011
152581,9.577,-0.189,1.963,-0.007,0.007,0.011
152684,9.594,-0.182,1.973,-0.007,0.007,0.011
152787,9.584,-0.194,1.97,-0.007,0.007,0.011
152890,9.584,-0.204,1.954,-0.007,0.007,0.011
152993,9.577,-0.18,1.973,-0.007,0.007,0.011
153096,9.589,-0.192,1.975,-0.007,0.007,0.011
153199,9.582,-0.199,1.944,-0.007,0.007,0.011
153302,9.596,-0.201,1.937,-0.007,0.007,0.011
153405,9.582,-0.199,1.949,-0.007,0.007,0.011
153508,9.591,-0.189,1.968,-0.006,0.007,0.011
153611,9.586,-0.194,1.966,-0.007,0.007,0.011
153714,9.572,-0.194,1.961,-0.007,0.007,0.01
153817,9.586,-0.184,1.966,-0.007,0.007,0.011
153920,9.567,-0.182,1.958,-0.007,0.007,0.011
154023,9.586,-0.187,1.946,-0.007,0.007,0.011
154126,9.582,-0.182,1.956,-0.007,0.008,0.011
154229,9.596,-0.196,1.963,-0.007,0.007,0.011
154332,9.596,-0.187,1.958,-0.007,0.007,0.011
154435,9.586,-0.192,1.956,-0.007,0.007,0.011
154538,9.582,-0.199,1.954,-0.007,0.007,0.011
154641,9.584,-0.187,1.966,-0.007,0.007,0.01
154744,9.591,-0.192,1.966,-0.007,0.007,0.011
154847,9.579,-0.187,1.956,-0.007,0.007,0.011
154950,9.582,-0.196,1.973,-0.007,0.007,0.011
155053,9.589,-0.194,1.946,-0.007,0.007,0.011
155156,9.594,-0.184,1.961,-0.007,0.007,0.011
155259,9.589,-0.187,1.958,-0.007,0.008,0.011
155362,9.584,-0.194,1.97,-0.007,0.007,0.01
155465,9.582,-0.201,1.944,-0.007,0.007,0.011
155568,9.591,-0.196,1.958,-0.007,0.007,0.011
155671,9.589,-0.199,1.958,-0.007,0.007,0.011
155774,9.598,-0.189,1.968,-0.007,0.007,0.011
155877,9.591,-0.177,1.958,-0.007,0.007,0.011
155980,9.586,-0.189,1.956,-0.007,0.007,0.011
156083,9.589,-0.177,1.954,-0.007,0.008,0.011
156186,9.586,-0.201,1.966,-0.007,0.007,0.011
156289,9.584,-0.187,1.961,-0.006,0.007,0.011
156392,9.591,-0.192,1.963,-0.007,0.007,0.011
156495,9.589,-0.196,1.958,-0.007,0.007,0.011
156598,9.591,-0.192,1.954,-0.006,0.007,0.011
156701,9.594,-0.184,1.956,-0.007,0.007,0.011
156804,9.591,-0.194,1.954,-0.007,0.007,0.011
156907,9.594,-0.18,1.963,-0.006,0.007,0.011
157010,9.582,-0.194,1.966,-0.007,0.007,0.011
157113,9.582,-0.201,1.961,-0.007,0.007,0.011
157216,9.594,-0.189,1.958,-0.007,0.007,0.011
157319,9.586,-0.192,1.944,-0.007,0.007,0.011
157422,9.579,-0.196,1.956,-0.007,0.007,0.011
157525,9.594,-0.192,1.956,-0.007,0.007,0.011
157628,9.586,-0.192,1.966,-0.007,0.007,0.011
157731,9.584,-0.18,1.968,-0.007,0.007,0.011
157834,9.582,-0.189,1.954,-0.007,0.007,0.011
157937,9.589,-0.187,1.956,-0.007,0.008,0.01
158040,9.586,-0.192,1.982,-0.007,0.007,0.011
158143,9.586,-0.194,1.951,-0.007,0.007,0.011
158246,9.584,-0.196,1.956,-0.007,0.007,0.011
158349,9.591,-0.192,1.958,-0.007,0.007,0.011
158452,9.584,-0.184,1.946,-0.007,0.007,0.011
158555,9.582,-0.199,1.961,-0.007,0.008,0.011
158658,9.586,-0.192,1.956,-0.007,0.007,0.011
158761,9.594,-0.196,1.97,-0.007,0.007,0.01
158864,9.582,-0.192,1.97,-0.007,0.007,0.01
158967,9.591,-0.199,1.961,-0.007,0.007,0.01
159070,9.591,-0.189,1.954,-0.007,0.007,0.011
159173,9.589,-0.196,1.954,-0.007,0.007,0.011
159276,9.586,-0.196,1.966,-0.008,0.007,0.011
159379,9.582,-0.184,1.973,-0.007,0.007,0.011
159482,9.589,-0.194,1.961,-0.007,0.007,0.011
159585,9.591,-0.196,1.949,-0.007,0.006,0.011
159688,9.596,-0.184,1.973,-0.007,0.007,0.011
159791,9.594,-0.196,1.966,-0.007,0.007,0.011
159894,9.586,-0.192,1.946,-0.007,0.007,0.011
159997,9.591,-0.199,1.958,-0.007,0.006,0.011
160100,9.589,-0.196,1.968,-0.007,0.007,0.011
160203,9.584,-0.194,1.951,-0.007,0.007,0.011
160306,9.582,-0.187,1.958,-0.007,0.007,0.011
160409,9.589,-0.196,1.973,-0.007,0.007,0.011
160512,9.579,-0.194,1.954,-0.006,0.007,0.011
160615,9.589,-0.196,1.973,-0.007,0.007,0.011
160718,9.584,-0.196,1.97,-0.007,0.007,0.011
160821,9.596,-0.182,1.958,-0.007,0.007,0.011
160924,9.586,-0.189,1.961,-0.007,0.007,0.011
161027,9.594,-0.196,1.956,-0.007,0.008,0.011
161130,9.589,-0.187,1.963,-0.007,0.007,0.011
161233,9.572,-0.189,1.951,-0.008,0.007,0.011
161336,9.586,-0.189,1.966,-0.007,0.007,0.011
161439,9.591,-0.194,1.963,-0.007,0.008,0.011
161542,9.582,-0.192,1.951,-0.007,0.007,0.011
161645,9.589,-0.194,1.97,-0.007,0.007,0.011
161748,9.591,-0.201,1.973,-0.007,0.007,0.011
161851,9.579,-0.18,1.956,-0.007,0.007,0.011
161954,9.589,-0.194,1.961,-0.007,0.007,0.011
162057,9.579,-0.194,1.968,-0.007,0.007,0.011
162160,9.584,-0.194,1.958,-0.007,0.007,0.011
162263,9.591,-0.189,1.963,-0.007,0.007,0.011
162366,9.584,-0.201,1.958,-0.008,0.007,0.011
162469,9.582,-0.199,1.966,-0.007,0.007,0.011
162572,9.584,-0.194,1.978,-0.007,0.007,0.011
162675,9.584,-0.189,1.956,-0.007,0.007,0.011
162778,9.594,-0.187,1.968,-0.007,0.008,0.011
162881,9.591,-0.189,1.968,-0.007,0.008,0.011
162984,9.582,-0.189,1.963,-0.006,0.007,0.011
163087,9.591,-0.196,1.973,-0.007,0.007,0.011
163190,9.586,-0.192,1.968,-0.007,0.007,0.011
163293,9.601,-0.187,1.954,-0.007,0.007,0.01
163396,9.574,-0.196,1.961,-0.007,0.007,0.011
163499,9.594,-0.189,1.951,-0.007,0.007,0.011
163602,9.589,-0.187,1.958,-0.007,0.007,0.011
163705,9.584,-0.204,1.946,-0.007,0.007,0.011
163808,9.591,-0.199,1.966,-0.007,0.007,0.011
163911,9.591,-0.184,1.937,-0.006,0.007,0.01
164014,9.584,-0.194,1.949,-0.007,0.007,0.011
164117,9.584,-0.192,1.958,-0.007,0.007,0.011
164220,9.584,-0.187,1.97,-0.007,0.008,0.011
164323,9.589,-0.199,1.97,-0.007,0.007,0.011
164426,9.589,-0.187,1.975,-0.007,0.007,0.011
164529,9.589,-0.187,1.963,-0.007,0.007,0.011
164632,9.584,-0.192,1.958,-0.007,0.007,0.011
164735,9.596,-0.194,1.966,-0.007,0.006,0.011
164838,9.582,-0.201,1.954,-0.007,0.007,0.011
164941,9.584,-0.194,1.966,-0.007,0.007,0.011
165044,9.594,-0.199,1.946,-0.007,0.008,0.011
165147,9.577,-0.199,1.954,-0.007,0.007,0.011
165250,9.591,-0.192,1.968,-0.006,0.007,0.011
165353,9.591,-0.192,1.961,-0.007,0.007,0.011
165456,9.579,-0.194,1.954,-0.007,0.007,0.011
165559,9.586,-0.189,1.97,-0.007,0.007,0.011
165662,9.584,-0.189,1.963,-0.007,0.007,0.011
165765,9.586,-0.184,1.961,-0.007,0.007,0.011
165868,9.586,-0.184,1.968,-0.007,0.007,0.011
165971,9.586,-0.189,1.956,-0.007,0.007,0.011
166074,9.596,-0.189,1.956,-0.007,0.007,0.011
166177,9.603,-0.192,1.956,-0.007,0.007,0.011
166280,9.589,-0.194,1.963,-0.007,0.007,0.011
166383,9.574,-0.196,1.958,-0.007,0.007,0.011
166486,9.591,-0.184,1.963,-0.006,0.007,0.011
166589,9.586,-0.194,1.954,-0.007,0.007,0.01
166692,9.589,-0.187,1.966,-0.007,0.007,0.011
166795,9.582,-0.199,1.949,-0.007,0.007,0.011
166898,9.582,-0.189,1.954,-0.007,0.007,0.011
167001,9.594,-0.184,1.949,-0.007,0.007,0.011
167104,9.582,-0.196,1.946,-0.007,0.007,0.011
167207,9.586,-0.187,1.963,-0.007,0.007,0.011
167310,9.591,-0.196,1.963,-0.007,0.007,0.011
167413,9.586,-0.206,1.958,-0.007,0.007,0.011
167516,9.594,-0.189,1.961,-0.006,0.007,0.01
167619,9.589,-0.189,1.968,-0.007,0.007,0.011
167722,9.582,-0.196,1.97,-0.007,0.007,0.011
167825,9.598,-0.189,1.987,-0.007,0.007,0.011
167928,9.589,-0.192,1.956,-0.007,0.007,0.011
168031,9.584,-0.175,1.954,-0.007,0.007,0.01
168134,9.594,-0.194,1.963,-0.007,0.007,0.011
168237,9.584,-0.189,1.958,-0.007,0.007,0.011
168340,9.589,-0.192,1.961,-0.007,0.007,0.011
168443,9.586,-0.196,1.949,-0.007,0.007,0.011
168546,9.579,-0.187,1.961,-0.007,0.007,0.011
168649,9.591,-0.201,1.963,-0.007,0.007,0.011
168752,9.591,-0.196,1.961,-0.007,0.007,0.011
168855,9.579,-0.192,1.954,-0.007,0.007,0.011
168958,9.586,-0.189,1.963,-0.007,0.007,0.01
169061,9.586,-0.206,1.973,-0.007,0.007,0.011
169164,9.586,-0.194,1.961,-0.007,0.007,0.011
169267,9.589,-0.201,1.973,-0.006,0.007,0.011
169370,9.584,-0.199,1.968,-0.007,0.007,0.011
169473,9.589,-0.194,1.963,-0.007,0.007,0.011
169576,9.586,-0.201,1.961,-0.007,0.007,0.011
169679,9.579,-0.194,1.966,-0.007,0.007,0.011
169782,9.591,-0.189,1.966,-0.007,0.007,0.011
169885,9.589,-0.199,1.975,-0.007,0.007,0.011
169988,9.589,-0.192,1.954,-0.007,0.007,0.011
170091,9.598,-0.187,1.958,-0.007,0.007,0.011
170194,9.579,-0.196,1.958,-0.007,0.008,0.011
170297,9.586,-0.194,1.961,-0.007,0.007,0.011
170400,9.596,-0.196,1.951,-0.007,0.007,0.011
170503,9.606,-0.184,1.975,-0.008,0.007,0.011
170606,9.606,-0.194,1.978,-0.007,0.007,0.011
170709,9.596,-0.175,1.97,-0.006,0.007,0.011
170812,9.574,-0.189,1.946,-0.007,0.007,0.011
170915,9.591,-0.189,1.966,-0.007,0.007,0.011
171018,9.574,-0.204,1.961,-0.007,0.007,0.011
171121,9.582,-0.192,1.954,-0.007,0.007,0.011
171224,9.589,-0.187,1.97,-0.007,0.007,0.011
171327,9.582,-0.192,1.968,-0.007,0.007,0.011
171430,9.574,-0.192,1.961,-0.007,0.008,0.011
171533,9.589,-0.192,1.978,-0.007,0.007,0.01
171636,9.584,-0.199,1.966,-0.007,0.007,0.01
171739,9.596,-0.194,1.961,-0.007,0.007,0.011
171842,9.584,-0.192,1.961,-0.007,0.007,0.01
171945,9.594,-0.199,1.97,-0.007,0.007,0.011
172048,9.579,-0.184,1.963,-0.007,0.007,0.011
172151,9.589,-0.192,1.975,-0.007,0.007,0.011
172254,9.589,-0.201,1.978,-0.007,0.007,0.011
172357,9.598,-0.196,1.975,-0.007,0.007,0.011
172460,9.591,-0.199,1.961,-0.007,0.007,0.011
172563,9.579,-0.196,1.982,-0.007,0.007,0.011
172666,9.584,-0.199,1.963,-0.007,0.007,0.011
172769,9.584,-0.187,1.958,-0.007,0.007,0.011
172872,9.586,-0.184,1.963,-0.007,0.007,0.011
172975,9.589,-0.192,1.961,-0.007,0.007,0.011
173078,9.591,-0.192,1.961,-0.007,0.007,0.011
173181,9.589,-0.187,1.966,-0.007,0.007,0.011
173284,9.586,-0.189,1.968,-0.007,0.007,0.011
173387,9.591,-0.184,1.966,-0.007,0.007,0.011
173490,9.586,-0.187,1.963,-0.007,0.007,0.011
173593,9.582,-0.196,1.963,-0.008,0.007,0.011
173696,9.594,-0.187,1.966,-0.007,0.007,0.011
173799,9.586,-0.189,1.954,-0.007,0.007,0.012
173902,9.574,-0.196,1.944,-0.007,0.007,0.011
174005,9.579,-0.189,1.968,-0.007,0.007,0.011
174108,9.582,-0.187,1.973,-0.007,0.007,0.011
174211,9.586,-0.18,1.954,-0.007,0.007,0.011
174314,9.596,-0.196,1.978,-0.006,0.007,0.011
174417,9.584,-0.189,1.97,-0.007,0.007,0.011
174520,9.594,-0.192,1.956,-0.007,0.007,0.011
174623,9.591,-0.194,1.966,-0.007,0.007,0.011
174726,9.584,-0.194,1.966,-0.007,0.007,0.011
174829,9.584,-0.192,1.978,-0.007,0.008,0.011
174932,9.586,-0.194,1.97,-0.006,0.007,0.011
175035,9.582,-0.187,1.963,-0.007,0.007,0.01
175138,9.589,-0.187,1.963,-0.007,0.007,0.011
175241,9.589,-0.187,1.97,-0.007,0.007,0.011
175344,9.586,-0.184,1.968,-0.007,0.007,0.011
175447,9.589,-0.189,1.968,-0.007,0.007,0.011
175550,9.584,-0.182,1.966,-0.007,0.007,0.01
175653,9.591,-0.177,1.949,-0.007,0.007,0.011
175756,9.584,-0.194,1.973,-0.007,0.007,0.011
175859,9.594,-0.199,1.944,-0.007,0.007,0.011
175962,9.596,-0.184,1.961,-0.006,0.007,0.011
176065,9.584,-0.187,1.968,-0.007,0.007,0.011
176168,9.586,-0.196,1.97,-0.006,0.007,0.011
176271,9.589,-0.196,1.98,-0.007,0.007,0.011
176374,9.582,-0.192,1.951,-0.006,0.007,0.011
176477,9.589,-0.187,1.973,-0.007,0.007,0.011
176580,9.591,-0.184,1.966,-0.007,0.007,0.011
176683,9.586,-0.184,1.966,-0.007,0.007,0.011
176786,9.594,-0.184,1.954,-0.006,0.007,0.011
176889,9.577,-0.201,1.956,-0.007,0.007,0.012
176992,9.589,-0.187,1.97,-0.007,0.007,0.011
177095,9.596,-0.189,1.951,-0.007,0.007,0.011
177198,9.586,-0.192,1.942,-0.007,0.007,0.011
177301,9.591,-0.199,1.958,-0.007,0.008,0.011
177404,9.589,-0.189,1.966,-0.007,0.007,0.011
177507,9.582,-0.189,1.954,-0.007,0.007,0.011
177610,9.591,-0.184,1.958,-0.007,0.007,0.011
177713,9.591,-0.187,1.966,-0.006,0.007,0.011
177816,9.582,-0.192,1.958,-0.007,0.007,0.011
177919,9.584,-0.184,1.956,-0.007,0.007,0.011
178022,9.589,-0.192,1.949,-0.007,0.007,0.011
178125,9.601,-0.187,1.97,-0.007,0.007,0.011
178228,9.586,-0.196,1.975,-0.007,0.007,0.011
178331,9.584,-0.189,1.963,-0.006,0.007,0.011
178434,9.584,-0.184,1.956,-0.007,0.007,0.01
178537,9.577,-0.189,1.968,-0.007,0.007,0.011
178640,9.579,-0.189,1.975,-0.007,0.006,0.011
178743,9.594,-0.187,1.963,-0.007,0.007,0.01
178846,9.586,-0.201,1.966,-0.007,0.007,0.011
178949,9.594,-0.189,1.973,-0.007,0.007,0.011
179052,9.596,-0.184,1.958,-0.007,0.007,0.011
179155,9.586,-0.187,1.961,-0.007,0.008,0.011
179258,9.589,-0.187,1.973,-0.006,0.007,0.011
179361,9.579,-0.187,1.973,-0.007,0.007,0.01
179464,9.584,-0.196,1.978,-0.007,0.007,0.011
179567,9.584,-0.187,1.961,-0.007,0.007,0.011
179670,9.598,-0.184,1.942,-0.007,0.007,0.011
179773,9.591,-0.194,1.949,-0.007,0.007,0.011
179876,9.594,-0.189,1.973,-0.007,0.007,0.011
179979,9.591,-0.194,1.97,-0.007,0.007,0.011
180082,9.579,-0.189,1.968,-0.007,0.007,0.011
180185,9.594,-0.199,1.97,-0.006,0.007,0.011
180288,9.577,-0.187,1.958,-0.007,0.007,0.011
180391,9.579,-0.192,1.966,-0.007,0.008,0.011
180494,9.579,-0.194,1.954,-0.006,0.007,0.011
180597,9.582,-0.206,1.963,-0.008,0.007,0.011
180700,9.589,-0.189,1.982,-0.007,0.007,0.011
180803,9.584,-0.187,1.956,-0.006,0.007,0.011
180906,9.591,-0.187,1.963,-0.007,0.007,0.011
181009,9.596,-0.189,1.958,-0.007,0.007,0.011
181112,9.589,-0.194,1.949,-0.007,0.007,0.012
181215,9.579,-0.189,1.958,-0.007,0.007,0.011
181318,9.594,-0.192,1.966,-0.006,0.008,0.011
181421,9.582,-0.192,1.968,-0.007,0.007,0.011
181524,9.596,-0.192,1.956,-0.006,0.007,0.011
181627,9.589,-0.196,1.968,-0.007,0.007,0.011
181730,9.584,-0.192,1.961,-0.007,0.007,0.011
181833,9.591,-0.196,1.966,-0.006,0.007,0.011
181936,9.589,-0.184,1.958,-0.007,0.007,0.011
182039,9.586,-0.184,1.961,-0.007,0.007,0.011
182142,9.596,-0.196,1.978,-0.006,0.008,0.011
182245,9.586,-0.196,1.97,-0.007,0.007,0.011
182348,9.589,-0.194,1.961,-0.007,0.007,0.01
182451,9.584,-0.182,1.961,-0.006,0.007,0.011
182554,9.577,-0.187,1.963,-0.006,0.007,0.011
182657,9.589,-0.182,1.966,-0.007,0.007,0.011
182760,9.584,-0.189,1.97,-0.007,0.007,0.011
182863,9.574,-0.199,1.982,-0.007,0.007,0.011
182966,9.586,-0.192,1.97,-0.006,0.007,0.011
183069,9.586,-0.189,1.97,-0.006,0.007,0.011
183172,9.596,-0.182,1.97,-0.007,0.007,0.011
183275,9.596,-0.192,1.975,-0.007,0.007,0.011
183378,9.584,-0.194,1.961,-0.007,0.007,0.011
183481,9.591,-0.196,1.963,-0.007,0.007,0.011
183584,9.589,-0.187,1.968,-0.007,0.007,0.011
183687,9.594,-0.192,1.949,-0.007,0.007,0.011
183790,9.594,-0.192,1.963,-0.006,0.007,0.011
183893,9.589,-0.194,1.975,-0.007,0.007,0.011
183996,9.586,-0.194,1.975,-0.007,0.007,0.011
184099,9.584,-0.199,1.963,-0.007,0.007,0.011
184202,9.589,-0.187,1.961,-0.007,0.007,0.011
184305,9.594,-0.189,1.961,-0.007,0.007,0.01
184408,9.584,-0.196,1.968,-0.007,0.007,0.011
184511,9.594,-0.192,1.958,-0.007,0.006,0.011
184614,9.579,-0.196,1.97,-0.007,0.007,0.01
184717,9.596,-0.196,1.975,-0.007,0.007,0.011
184820,9.579,-0.194,1.958,-0.007,0.007,0.011
184923,9.586,-0.192,1.982,-0.007,0.008,0.011
185026,9.584,-0.194,1.966,-0.007,0.007,0.011
185129,9.574,-0.187,1.966,-0.007,0.007,0.011
185232,9.591,-0.184,1.951,-0.006,0.007,0.011
185335,9.586,-0.192,1.958,-0.007,0.007,0.011
185438,9.596,-0.192,1.968,-0.007,0.008,0.011
185541,9.586,-0.199,1.963,-0.007,0.007,0.011
185644,9.579,-0.194,1.966,-0.007,0.007,0.011
185747,9.591,-0.199,1.963,-0.006,0.007,0.011
185850,9.589,-0.194,1.968,-0.007,0.007,0.011
185953,9.586,-0.194,1.966,-0.006,0.007,0.011
186056,9.591,-0.184,1.966,-0.007,0.007,0.011
186159,9.577,-0.187,1.956,-0.007,0.007,0.011
186262,9.589,-0.194,1.958,-0.006,0.007,0.011
186365,9.584,-0.192,1.968,-0.006,0.007,0.011
186468,9.582,-0.194,1.968,-0.007,0.007,0.011
186571,9.591,-0.184,1.973,-0.006,0.007,0.011
186674,9.598,-0.194,1.968,-0.007,0.007,0.011
186777,9.577,-0.192,1.956,-0.007,0.007,0.011
186880,9.589,-0.187,1.963,-0.006,0.007,0.011
186983,9.584,-0.189,1.956,-0.007,0.007,0.011
187086,9.586,-0.187,1.966,-0.007,0.007,0.01
187189,9.591,-0.192,1.968,-0.007,0.007,0.011
187292,9.586,-0.208,1.968,-0.007,0.007,0.011
187395,9.584,-0.187,1.961,-0.007,0.007,0.011
187498,9.584,-0.187,1.97,-0.006,0.007,0.011
187601,9.584,-0.194,1.951,-0.007,0.007,0.011
187704,9.591,-0.196,1.97,-0.007,0.007,0.011
187807,9.589,-0.177,1.968,-0.007,0.007,0.011
187910,9.584,-0.204,1.975,-0.006,0.007,0.011
188013,9.589,-0.189,1.97,-0.006,0.007,0.011
188116,9.579,-0.189,1.963,-0.007,0.007,0.011
188219,9.582,-0.189,1.958,-0.007,0.007,0.01
188322,9.584,-0.194,1.975,-0.006,0.007,0.011
188425,9.584,-0.194,1.973,-0.007,0.008,0.011
188528,9.586,-0.184,1.961,-0.006,0.007,0.011
188631,9.582,-0.196,1.954,-0.007,0.008,0.011
188734,9.584,-0.187,1.978,-0.007,0.007,0.011
188837,9.591,-0.196,1.982,-0.007,0.008,0.011
188940,9.582,-0.199,1.966,-0.007,0.007,0.011
189043,9.584,-0.189,1.954,-0.007,0.007,0.011
189146,9.591,-0.184,1.973,-0.007,0.007,0.011
189249,9.594,-0.201,1.951,-0.007,0.007,0.011
189352,9.584,-0.189,1.961,-0.007,0.007,0.011
189455,9.589,-0.187,1.958,-0.007,0.007,0.011
189558,9.579,-0.184,1.944,-0.007,0.007,0.011
189661,9.589,-0.194,1.963,-0.006,0.007,0.011
189764,9.586,-0.192,1.958,-0.006,0.007,0.011
189867,9.589,-0.199,1.956,-0.007,0.007,0.011
189970,9.591,-0.189,1.961,-0.007,0.007,0.011
190073,9.577,-0.189,1.958,-0.007,0.007,0.011
190176,9.589,-0.189,1.968,-0.007,0.008,0.011
190279,9.603,-0.196,1.97,-0.006,0.007,0.011
190382,9.582,-0.189,1.961,-0.007,0.007,0.011
190485,9.586,-0.184,1.951,-0.006,0.007,0.011
190588,9.589,-0.187,1.98,-0.006,0.007,0.011
190691,9.579,-0.189,1.956,-0.007,0.007,0.011
190794,9.586,-0.189,1.958,-0.007,0.007,0.01
190897,9.586,-0.196,1.966,-0.007,0.007,0.011
191000,9.582,-0.187,1.968,-0.007,0.007,0.01
191103,9.596,-0.192,1.973,-0.007,0.007,0.011
191206,9.582,-0.189,1.966,-0.007,0.007,0.011
191309,9.582,-0.187,1.966,-0.006,0.007,0.011
191412,9.591,-0.194,1.968,-0.007,0.007,0.011
191515,9.589,-0.194,1.958,-0.007,0.007,0.01
191618,9.589,-0.187,1.949,-0.007,0.007,0.011
191721,9.572,-0.204,1.961,-0.007,0.007,0.011
191824,9.586,-0.194,1.963,-0.007,0.007,0.011
191927,9.586,-0.194,1.963,-0.007,0.007,0.01
192030,9.582,-0.187,1.961,-0.007,0.008,0.011
192133,9.589,-0.194,1.975,-0.006,0.007,0.01
192236,9.586,-0.189,1.968,-0.007,0.007,0.011
192339,9.584,-0.184,1.97,-0.007,0.006,0.011
192442,9.589,-0.192,1.963,-0.007,0.007,0.01
192545,9.598,-0.201,1.961,-0.007,0.007,0.011
192648,9.589,-0.189,1.973,-0.007,0.007,0.011
192751,9.594,-0.192,1.961,-0.007,0.007,0.011
192854,9.594,-0.184,1.961,-0.007,0.007,0.011
192957,9.591,-0.194,1.956,-0.007,0.007,0.01
193060,9.584,-0.187,1.98,-0.007,0.007,0.011
193163,9.589,-0.196,1.963,-0.007,0.006,0.011
193266,9.589,-0.192,1.956,-0.007,0.007,0.011
193369,9.589,-0.201,1.963,-0.007,0.007,0.01
193472,9.589,-0.199,1.954,-0.006,0.007,0.011
193575,9.601,-0.192,1.966,-0.006,0.007,0.011
193678,9.586,-0.189,1.968,-0.007,0.007,0.011
193781,9.586,-0.196,1.949,-0.007,0.007,0.011
193884,9.584,-0.187,1.982,-0.006,0.007,0.011
193987,9.589,-0.196,1.968,-0.007,0.007,0.011
194090,9.586,-0.192,1.97,-0.007,0.007,0.011
194193,9.589,-0.184,1.978,-0.007,0.007,0.011
194296,9.582,-0.192,1.985,-0.007,0.007,0.011
194399,9.594,-0.187,1.956,-0.007,0.008,0.01
194502,9.591,-0.199,1.963,-0.007,0.007,0.011
194605,9.586,-0.189,1.963,-0.007,0.007,0.011
194708,9.584,-0.187,1.963,-0.006,0.007,0.011
194811,9.596,-0.201,1.97,-0.006,0.007,0.011
194914,9.577,-0.182,1.975,-0.007,0.007,0.011
195017,9.594,-0.192,1.966,-0.006,0.007,0.011
195120,9.579,-0.194,1.968,-0.007,0.008,0.011
195223,9.582,-0.194,1.975,-0.007,0.008,0.01
195326,9.589,-0.187,1.97,-0.007,0.007,0.011
195429,9.589,-0.192,1.958,-0.007,0.007,0.011
195532,9.582,-0.196,1.961,-0.006,0.007,0.011
195635,9.598,-0.187,1.97,-0.006,0.007,0.011
195738,9.582,-0.194,1.961,-0.007,0.007,0.01
195841,9.589,-0.194,1.968,-0.006,0.007,0.011
195944,9.591,-0.199,1.966,-0.006,0.007,0.011
196047,9.596,-0.189,1.97,-0.007,0.007,0.011
196150,9.591,-0.189,1.97,-0.006,0.007,0.011
196253,9.594,-0.189,1.968,-0.007,0.007,0.011
196356,9.584,-0.194,1.966,-0.007,0.008,0.011
196459,9.584,-0.182,1.978,-0.007,0.007,0.011
196562,9.579,-0.184,1.973,-0.007,0.007,0.011
196665,9.591,-0.184,1.966,-0.006,0.007,0.011
196768,9.591,-0.199,1.975,-0.007,0.008,0.011
196871,9.582,-0.189,1.961,-0.007,0.007,0.011
196974,9.594,-0.196,1.975,-0.007,0.007,0.011
197077,9.584,-0.196,1.961,-0.007,0.007,0.012
197180,9.584,-0.201,1.978,-0.007,0.007,0.011
197283,9.598,-0.194,1.973,-0.007,0.007,0.011
197386,9.586,-0.192,1.97,-0.007,0.007,0.011
197489,9.586,-0.187,1.963,-0.007,0.007,0.01
197592,9.594,-0.189,1.963,-0.007,0.007,0.011
197695,9.582,-0.196,1.956,-0.007,0.007,0.011
197798,9.591,-0.192,1.98,-0.007,0.007,0.011
197901,9.586,-0.199,1.954,-0.007,0.007,0.011
198004,9.589,-0.196,1.961,-0.007,0.007,0.011
198107,9.598,-0.199,1.98,-0.006,0.007,0.011
198210,9.586,-0.199,1.956,-0.007,0.007,0.011
198313,9.586,-0.189,1.961,-0.006,0.007,0.011
198416,9.589,-0.192,1.978,-0.006,0.007,0.011
198519,9.582,-0.194,1.978,-0.007,0.006,0.011
198622,9.586,-0.187,1.975,-0.007,0.007,0.011
198725,9.589,-0.189,1.978,-0.007,0.007,0.011
198828,9.577,-0.192,1.97,-0.007,0.007,0.011
198931,9.598,-0.187,1.98,-0.006,0.007,0.01
199034,9.574,-0.196,1.973,-0.007,0.007,0.011
199137,9.584,-0.187,1.958,-0.007,0.008,0.011
199240,9.579,-0.182,1.973,-0.006,0.007,0.011
199343,9.574,-0.196,1.985,-0.007,0.007,0.011
199446,9.598,-0.194,1.958,-0.006,0.007,0.011
199549,9.589,-0.196,1.966,-0.006,0.007,0.011
199652,9.586,-0.194,1.968,-0.007,0.008,0.011
199755,9.574,-0.182,1.968,-0.007,0.007,0.01
199858,9.589,-0.194,1.978,-0.006,0.007,0.011
199961,9.589,-0.187,1.961,-0.007,0.007,0.011
200064,9.586,-0.184,1.956,-0.006,0.007,0.011
200167,9.591,-0.199,1.973,-0.006,0.007,0.011
200270,9.586,-0.194,1.961,-0.006,0.007,0.011
200373,9.589,-0.187,1.975,-0.007,0.007,0.011
200476,9.579,-0.187,1.961,-0.006,0.007,0.011
200579,9.584,-0.194,1.966,-0.007,0.007,0.011
200682,9.591,-0.196,1.985,-0.007,0.007,0.011
200785,9.582,-0.184,1.966,-0.007,0.007,0.011
200888,9.594,-0.182,1.982,-0.006,0.007,0.011
200991,9.596,-0.199,1.975,-0.007,0.007,0.011
201094,9.586,-0.189,1.973,-0.007,0.007,0.011
201197,9.589,-0.196,1.975,-0.006,0.007,0.011
201300,9.586,-0.199,1.973,-0.007,0.007,0.011
201403,9.579,-0.189,1.97,-0.006,0.007,0.011
201506,9.591,-0.199,1.956,-0.006,0.007,0.011
201609,9.584,-0.189,1.958,-0.007,0.007,0.011
201712,9.589,-0.194,1.963,-0.007,0.007,0.01
201815,9.586,-0.192,1.98,-0.006,0.007,0.011
201918,9.586,-0.187,1.978,-0.007,0.007,0.011
202021,9.589,-0.184,1.961,-0.007,0.007,0.011
202124,9.584,-0.189,1.966,-0.007,0.007,0.011
202227,9.589,-0.189,1.958,-0.007,0.007,0.011
202330,9.594,-0.189,1.975,-0.006,0.007,0.011
202433,9.586,-0.199,1.961,-0.007,0.007,0.011
202536,9.591,-0.194,1.963,-0.007,0.007,0.011
202639,9.591,-0.192,1.973,-0.007,0.008,0.011
202742,9.596,-0.192,1.97,-0.006,0.007,0.011
202845,9.589,-0.194,1.961,-0.007,0.007,0.011
202948,9.591,-0.196,1.975,-0.007,0.007,0.011
203051,9.589,-0.189,1.966,-0.007,0.007,0.011
203154,9.589,-0.189,1.961,-0.006,0.008,0.011
203257,9.589,-0.201,1.973,-0.007,0.007,0.011
203360,9.582,-0.189,1.958,-0.007,0.007,0.011
203463,9.584,-0.184,1.982,-0.006,0.008,0.011
203566,9.582,-0.196,1.985,-0.007,0.007,0.011
203669,9.582,-0.192,1.963,-0.006,0.007,0.011
203772,9.594,-0.187,1.958,-0.006,0.007,0.011
203875,9.57,-0.196,1.944,-0.007,0.007,0.011
203978,9.584,-0.182,1.982,-0.007,0.007,0.011
204081,9.586,-0.187,1.968,-0.007,0.007,0.011
204184,9.594,-0.184,1.982,-0.007,0.007,0.011
204287,9.584,-0.189,1.966,-0.007,0.007,0.011
204390,9.574,-0.196,1.973,-0.007,0.007,0.011
204493,9.582,-0.199,1.961,-0.007,0.007,0.011
204596,9.589,-0.199,1.968,-0.007,0.007,0.011
204699,9.591,-0.192,1.954,-0.006,0.007,0.011
204802,9.594,-0.189,1.954,-0.006,0.007,0.01
204905,9.579,-0.189,1.975,-0.007,0.007,0.011
205008,9.584,-0.184,1.966,-0.007,0.007,0.011
205111,9.582,-0.194,1.968,-0.007,0.007,0.011
205214,9.586,-0.199,1.958,-0.007,0.007,0.011
205317,9.591,-0.184,1.966,-0.007,0.007,0.01
205420,9.589,-0.192,1.978,-0.006,0.007,0.011
205523,9.586,-0.182,1.985,-0.007,0.007,0.011
205626,9.589,-0.189,1.961,-0.007,0.007,0.01
205729,9.596,-0.187,1.968,-0.007,0.008,0.011
205832,9.591,-0.187,1.958,-0.007,0.007,0.011
205935,9.594,-0.199,1.978,-0.006,0.007,0.011
206038,9.582,-0.201,1.97,-0.007,0.007,0.011
206141,9.586,-0.189,1.973,-0.007,0.007,0.011
206244,9.584,-0.192,1.961,-0.007,0.007,0.011
206347,9.594,-0.196,1.966,-0.007,0.007,0.011
206450,9.591,-0.187,1.975,-0.006,0.007,0.011
206553,9.589,-0.199,1.966,-0.007,0.007,0.011
206656,9.584,-0.196,1.961,-0.007,0.007,0.011
206759,9.596,-0.189,1.973,-0.006,0.007,0.01
206862,9.582,-0.196,1.982,-0.006,0.007,0.011
206965,9.591,-0.189,1.987,-0.006,0.007,0.011
207068,9.591,-0.189,1.97,-0.007,0.007,0.01
207171,9.584,-0.192,1.968,-0.007,0.007,0.011
207274,9.584,-0.199,1.973,-0.007,0.007,0.01
207377,9.591,-0.187,1.982,-0.007,0.007,0.011
207480,9.577,-0.189,1.968,-0.007,0.007,0.011
207583,9.584,-0.189,1.968,-0.007,0.007,0.011
207686,9.594,-0.182,1.97,-0.006,0.007,0.012
207789,9.579,-0.189,1.975,-0.007,0.007,0.011
207892,9.584,-0.192,1.966,-0.007,0.007,0.011
207995,9.596,-0.199,1.968,-0.007,0.008,0.012
208098,9.582,-0.199,1.973,-0.007,0.007,0.01
208201,9.582,-0.206,1.97,-0.006,0.007,0.011
208304,9.589,-0.192,1.978,-0.007,0.007,0.011
208407,9.591,-0.187,1.954,-0.007,0.007,0.011
208510,9.582,-0.187,1.973,-0.006,0.007,0.011
208613,9.586,-0.196,1.98,-0.007,0.008,0.01
208716,9.596,-0.208,1.963,-0.007,0.008,0.011
208819,9.586,-0.184,1.968,-0.007,0.007,0.011
208922,9.584,-0.204,1.956,-0.007,0.007,0.011
209025,9.586,-0.189,1.978,-0.006,0.007,0.011
209128,9.591,-0.189,1.997,-0.007,0.007,0.011
209231,9.582,-0.194,1.975,-0.007,0.008,0.01
209334,9.598,-0.194,1.97,-0.006,0.007,0.011
209437,9.586,-0.194,1.961,-0.006,0.007,0.011
209540,9.591,-0.187,1.968,-0.006,0.007,0.011
209643,9.591,-0.201,1.966,-0.007,0.007,0.011
209746,9.584,-0.192,1.963,-0.006,0.007,0.011
209849,9.586,-0.187,1.973,-0.007,0.007,0.011
209952,9.584,-0.194,1.97,-0.007,0.007,0.012
210055,9.579,-0.201,1.968,-0.007,0.007,0.011
210158,9.584,-0.187,1.961,-0.006,0.007,0.011
210261,9.582,-0.189,1.98,-0.007,0.007,0.011
210364,9.584,-0.192,1.985,-0.007,0.007,0.011
210467,9.584,-0.189,1.985,-0.007,0.007,0.011
210570,9.577,-0.199,1.973,-0.006,0.007,0.011
210673,9.577,-0.196,1.973,-0.007,0.007,0.011
210776,9.589,-0.189,1.961,-0.007,0.007,0.011
210879,9.579,-0.194,1.961,-0.007,0.007,0.011
210982,9.586,-0.194,1.951,-0.007,0.008,0.011
211085,9.584,-0.215,2.246,-0.009,0.233,0.031
211188,9.536,-0.225,2.284,-0.007,0.027,0.01
211291,9.541,-0.213,2.277,-0.007,0.01,0.009
211394,9.529,-0.211,2.27,-0.007,0.009,0.009
211497,9.534,-0.223,2.279,-0.007,0.008,0.009
211600,9.538,-0.211,2.277,-0.007,0.008,0.01
211703,9.531,-0.22,2.279,-0.007,0.007,0.01
211806,9.524,-0.22,2.279,-0.007,0.007,0.009
211909,9.531,-0.213,2.294,-0.007,0.008,0.009
212012,9.538,-0.223,2.298,-0.007,0.007,0.009
212115,9.546,-0.213,2.282,-0.007,0.008,0.009
212218,9.541,-0.215,2.294,-0.007,0.007,0.009
212321,9.527,-0.223,2.291,-0.007,0.008,0.009
212424,9.529,-0.215,2.296,-0.007,0.007,0.01
212527,9.534,-0.223,2.277,-0.007,0.007,0.01
212630,9.529,-0.223,2.291,-0.007,0.007,0.009
212733,9.541,-0.22,2.284,-0.007,0.007,0.009
212836,9.534,-0.223,2.279,-0.007,0.007,0.009
212939,9.534,-0.227,2.286,-0.007,0.008,0.009
213042,9.529,-0.23,2.272,-0.007,0.007,0.01
213145,9.529,-0.227,2.277,-0.007,0.007,0.01
213248,9.546,-0.215,2.284,-0.007,0.007,0.009
213351,9.538,-0.223,2.274,-0.007,0.007,0.01
213454,9.531,-0.23,2.284,-0.007,0.008,0.009
213557,9.531,-0.218,2.291,-0.007,0.007,0.009
213660,9.527,-0.215,2.284,-0.007,0.007,0.009
213763,9.534,-0.218,2.289,-0.006,0.007,0.009
213866,9.534,-0.223,2.282,-0.007,0.007,0.009
213969,9.534,-0.23,2.265,-0.007,0.007,0.009
214072,9.529,-0.213,2.291,-0.007,0.007,0.009
214175,9.531,-0.22,2.282,-0.007,0.007,0.01
214278,9.536,-0.218,2.284,-0.006,0.008,0.009
214381,9.548,-0.215,2.282,-0.006,0.007,0.01
214484,9.527,-0.23,2.294,-0.007,0.007,0.009
214587,9.536,-0.22,2.284,-0.007,0.007,0.009
214690,9.536,-0.223,2.294,-0.007,0.007,0.009
214793,9.529,-0.215,2.286,-0.007,0.007,0.01
214896,9.527,-0.225,2.289,-0.007,0.007,0.009
214999,9.543,-0.215,2.291,-0.007,0.007,0.01
215102,9.529,-0.218,2.282,-0.007,0.007,0.009
215205,9.541,-0.22,2.289,-0.007,0.007,0.01
215308,9.538,-0.227,2.298,-0.007,0.007,0.01
215411,9.534,-0.215,2.282,-0.006,0.007,0.009
215514,9.543,-0.232,2.265,-0.007,0.007,0.009
215617,9.536,-0.23,2.282,-0.007,0.008,0.009
215720,9.534,-0.223,2.291,-0.007,0.007,0.01
215823,9.534,-0.237,2.291,-0.007,0.007,0.009
215926,9.538,-0.213,2.279,-0.007,0.007,0.009
216029,9.538,-0.213,2.272,-0.006,0.007,0.01
216132,9.534,-0.23,2.286,-0.007,0.007,0.009
216235,9.531,-0.223,2.279,-0.008,0.007,0.009
216338,9.536,-0.225,2.289,-0.006,0.007,0.009
216441,9.536,-0.225,2.289,-0.006,0.007,0.01
216544,9.538,-0.225,2.301,-0.007,0.007,0.009
216647,9.531,-0.218,2.282,-0.007,0.007,0.01
216750,9.527,-0.227,2.286,-0.007,0.007,0.009
216853,9.534,-0.22,2.284,-0.006,0.007,0.009
216956,9.534,-0.225,2.301,-0.007,0.007,0.01
217059,9.527,-0.227,2.279,-0.007,0.008,0.009
217162,9.538,-0.225,2.298,-0.006,0.007,0.01
217265,9.534,-0.225,2.274,-0.008,0.007,0.01
217368,9.543,-0.206,2.296,-0.007,0.007,0.009
217471,9.534,-0.225,2.294,-0.007,0.007,0.009
217574,9.531,-0.223,2.291,-0.007,0.007,0.009
217677,9.531,-0.215,2.282,-0.007,0.007,0.009
217780,9.536,-0.223,2.277,-0.007,0.007,0.01
217883,9.536,-0.22,2.277,-0.007,0.007,0.009
217986,9.531,-0.213,2.279,-0.007,0.007,0.009
218089,9.534,-0.227,2.291,-0.007,0.007,0.01
218192,9.541,-0.223,2.291,-0.007,0.007,0.01
218295,9.536,-0.223,2.282,-0.007,0.007,0.01
218398,9.531,-0.22,2.291,-0.007,0.007,0.009
218501,9.527,-0.223,2.279,-0.007,0.007,0.009
218604,9.527,-0.223,2.279,-0.007,0.007,0.009
218707,9.529,-0.218,2.284,-0.007,0.007,0.009
218810,9.538,-0.211,2.291,-0.006,0.007,0.009
218913,9.538,-0.215,2.282,-0.007,0.007,0.009
219016,9.531,-0.23,2.291,-0.007,0.007,0.01
219119,9.536,-0.223,2.301,-0.007,0.007,0.01
219222,9.538,-0.223,2.284,-0.007,0.007,0.009
219325,9.536,-0.218,2.284,-0.006,0.007,0.009
219428,9.546,-0.218,2.294,-0.007,0.007,0.01
219531,9.524,-0.23,2.289,-0.007,0.007,0.01
219634,9.531,-0.218,2.272,-0.007,0.007,0.01
219737,9.527,-0.218,2.279,-0.006,0.007,0.009
219840,9.527,-0.22,2.289,-0.007,0.007,0.01
219943,9.546,-0.218,2.308,-0.007,0.007,0.009
220046,9.534,-0.218,2.282,-0.007,0.007,0.01
220149,9.531,-0.223,2.298,-0.007,0.007,0.009
220252,9.529,-0.211,2.282,-0.007,0.007,0.01
220355,9.527,-0.223,2.298,-0.007,0.007,0.01
220458,9.541,-0.215,2.291,-0.007,0.007,0.009
220561,9.534,-0.22,2.282,-0.006,0.007,0.01
220664,9.529,-0.225,2.274,-0.007,0.007,0.01
220767,9.529,-0.22,2.284,-0.007,0.007,0.01
220870,9.534,-0.223,2.272,-0.007,0.007,0.01
220973,9.529,-0.218,2.282,-0.007,0.007,0.01
221076,9.531,-0.218,2.279,-0.006,0.007,0.009
221179,9.527,-0.223,2.303,-0.007,0.007,0.009
221282,9.534,-0.215,2.291,-0.007,0.007,0.009
221385,9.541,-0.213,2.282,-0.006,0.007,0.01
221488,9.529,-0.211,2.272,-0.006,0.007,0.01
221591,9.531,-0.215,2.274,-0.006,0.007,0.01
221694,9.531,-0.22,2.296,-0.007,0.007,0.01
221797,9.538,-0.225,2.277,-0.007,0.007,0.01
221900,9.536,-0.213,2.267,-0.007,0.007,0.009
222003,9.536,-0.227,2.303,-0.007,0.007,0.009
222106,9.534,-0.22,2.267,-0.007,0.007,0.009
222209,9.536,-0.22,2.286,-0.007,0.007,0.009
222312,9.529,-0.223,2.284,-0.007,0.007,0.009
222415,9.527,-0.223,2.286,-0.007,0.007,0.009
222518,9.538,-0.227,2.291,-0.006,0.007,0.01
222621,9.534,-0.215,2.286,-0.007,0.007,0.01
222724,9.543,-0.223,2.296,-0.007,0.007,0.009
222827,9.534,-0.22,2.301,-0.007,0.007,0.009
222930,9.529,-0.215,2.279,-0.007,0.007,0.01
223033,9.536,-0.218,2.301,-0.007,0.007,0.009
223136,9.543,-0.225,2.284,-0.007,0.007,0.01
223239,9.531,-0.23,2.289,-0.007,0.007,0.01
223342,9.543,-0.227,2.277,-0.007,0.007,0.009
223445,9.522,-0.22,2.284,-0.007,0.007,0.009
223548,9.529,-0.215,2.284,-0.007,0.007,0.009
223651,9.534,-0.227,2.279,-0.007,0.007,0.01
223754,9.536,-0.213,2.286,-0.007,0.007,0.01
223857,9.536,-0.218,2.286,-0.007,0.007,0.009
223960,9.534,-0.218,2.291,-0.007,0.007,0.009
224063,9.538,-0.232,2.298,-0.007,0.007,0.01
224166,9.538,-0.211,2.282,-0.007,0.007,0.01
224269,9.529,-0.223,2.279,-0.007,0.007,0.01
224372,9.527,-0.227,2.277,-0.007,0.008,0.01
224475,9.529,-0.213,2.289,-0.007,0.007,0.01
224578,9.536,-0.223,2.284,-0.007,0.007,0.01
224681,9.536,-0.215,2.289,-0.007,0.007,0.009
224784,9.536,-0.215,2.284,-0.007,0.008,0.01
224887,9.522,-0.23,2.274,-0.007,0.007,0.01
224990,9.527,-0.223,2.286,-0.006,0.007,0.009
225093,9.529,-0.208,2.286,-0.007,0.007,0.009
225196,9.529,-0.218,2.265,-0.007,0.007,0.01
225299,9.536,-0.215,2.296,-0.007,0.007,0.01
225402,9.531,-0.223,2.294,-0.007,0.007,0.01
225505,9.534,-0.225,2.294,-0.007,0.007,0.01
225608,9.534,-0.223,2.294,-0.007,0.007,0.009
225711,9.527,-0.227,2.274,-0.007,0.007,0.01
225814,9.543,-0.225,2.286,-0.007,0.007,0.01
225917,9.529,-0.218,2.279,-0.007,0.007,0.01
226020,9.524,-0.213,2.27,-0.007,0.007,0.01
226123,9.541,-0.22,2.294,-0.006,0.007,0.01
226226,9.536,-0.218,2.296,-0.007,0.007,0.009
226329,9.524,-0.218,2.289,-0.007,0.007,0.01
226432,9.536,-0.22,2.277,-0.007,0.007,0.009
226535,9.536,-0.223,2.289,-0.007,0.007,0.01
226638,9.527,-0.225,2.289,-0.007,0.007,0.01
226741,9.538,-0.218,2.289,-0.007,0.007,0.009
226844,9.531,-0.206,2.279,-0.007,0.007,0.01
226947,9.536,-0.218,2.282,-0.007,0.007,0.009
227050,9.529,-0.22,2.286,-0.007,0.007,0.01
227153,9.536,-0.223,2.303,-0.007,0.007,0.009
227256,9.541,-0.22,2.286,-0.007,0.007,0.009
227359,9.538,-0.22,2.286,-0.007,0.007,0.01
227462,9.536,-0.215,2.284,-0.007,0.007,0.009
227565,9.536,-0.223,2.291,-0.007,0.007,0.009
227668,9.534,-0.22,2.282,-0.007,0.007,0.009
227771,9.531,-0.23,2.277,-0.006,0.007,0.009
227874,9.538,-0.211,2.289,-0.007,0.007,0.01
227977,9.531,-0.218,2.274,-0.007,0.007,0.01
228080,9.534,-0.227,2.289,-0.007,0.007,0.009
228183,9.543,-0.218,2.284,-0.007,0.007,0.01
228286,9.527,-0.215,2.277,-0.007,0.007,0.009
228389,9.534,-0.213,2.306,-0.007,0.007,0.01
228492,9.541,-0.227,2.282,-0.007,0.007,0.009
228595,9.534,-0.218,2.291,-0.006,0.007,0.01
228698,9.536,-0.22,2.296,-0.007,0.007,0.009
228801,9.534,-0.218,2.272,-0.007,0.007,0.01
228904,9.524,-0.223,2.291,-0.007,0.007,0.01
229007,9.534,-0.218,2.303,-0.007,0.007,0.01
229110,9.531,-0.225,2.284,-0.007,0.007,0.009
229213,9.536,-0.223,2.284,-0.006,0.007,0.009
229316,9.531,-0.22,2.291,-0.007,0.007,0.01
229419,9.522,-0.223,2.308,-0.007,0.007,0.009
229522,9.534,-0.225,2.291,-0.006,0.007,0.009
229625,9.531,-0.218,2.272,-0.007,0.007,0.01
229728,9.538,-0.223,2.284,-0.007,0.007,0.009
229831,9.536,-0.22,2.286,-0.006,0.007,0.009
229934,9.536,-0.22,2.289,-0.007,0.007,0.009
230037,9.536,-0.213,2.296,-0.006,0.007,0.009
230140,9.527,-0.223,2.301,-0.007,0.007,0.01
230243,9.534,-0.227,2.294,-0.007,0.007,0.01
230346,9.541,-0.215,2.289,-0.006,0.007,0.01
230449,9.531,-0.232,2.282,-0.007,0.007,0.01
230552,9.529,-0.213,2.279,-0.007,0.007,0.009
230655,9.531,-0.215,2.301,-0.007,0.007,0.009
230758,9.538,-0.22,2.282,-0.007,0.007,0.009
230861,9.531,-0.211,2.277,-0.006,0.007,0.009
230964,9.536,-0.232,2.277,-0.006,0.007,0.009
231067,9.527,-0.223,2.284,-0.007,0.007,0.01
231170,9.538,-0.22,2.291,-0.007,0.007,0.01
231273,9.534,-0.22,2.298,-0.007,0.007,0.01
231376,9.527,-0.225,2.27,-0.007,0.007,0.01
231479,9.538,-0.225,2.291,-0.007,0.007,0.01
231582,9.534,-0.215,2.294,-0.007,0.007,0.009
231685,9.529,-0.225,2.284,-0.007,0.007,0.01
231788,9.541,-0.211,2.289,-0.007,0.007,0.01
231891,9.527,-0.225,2.286,-0.007,0.007,0.01
231994,9.531,-0.225,2.296,-0.007,0.007,0.01
232097,9.536,-0.22,2.289,-0.007,0.007,0.01
232200,9.534,-0.218,2.294,-0.007,0.007,0.009
232303,9.531,-0.225,2.303,-0.006,0.007,0.01
232406,9.524,-0.23,2.291,-0.007,0.007,0.009
232509,9.527,-0.22,2.296,-0.007,0.007,0.009
232612,9.531,-0.225,2.296,-0.007,0.007,0.009
232715,9.527,-0.223,2.274,-0.007,0.007,0.01
232818,9.522,-0.223,2.289,-0.007,0.007,0.009
232921,9.536,-0.218,2.296,-0.007,0.007,0.01
233024,9.527,-0.218,2.294,-0.006,0.007,0.009
233127,9.531,-0.22,2.284,-0.006,0.007,0.009
233230,9.534,-0.211,2.294,-0.007,0.007,0.01
233333,9.546,-0.215,2.291,-0.007,0.007,0.01
233436,9.534,-0.215,2.286,-0.006,0.007,0.01
233539,9.524,-0.23,2.294,-0.007,0.007,0.01
233642,9.531,-0.218,2.289,-0.007,0.007,0.01
233745,9.538,-0.208,2.306,-0.007,0.007,0.01
233848,9.522,-0.215,2.308,-0.007,0.007,0.01
233951,9.541,-0.208,2.294,-0.007,0.007,0.009
234054,9.538,-0.213,2.286,-0.007,0.007,0.01
234157,9.534,-0.22,2.279,-0.007,0.007,0.01
234260,9.538,-0.22,2.289,-0.007,0.006,0.01
234363,9.524,-0.22,2.291,-0.007,0.007,0.01
234466,9.527,-0.213,2.303,-0.007,0.007,0.009
234569,9.534,-0.227,2.306,-0.007,0.007,0.01
234672,9.531,-0.215,2.284,-0.007,0.007,0.01
234775,9.538,-0.223,2.284,-0.007,0.007,0.01
234878,9.534,-0.225,2.303,-0.006,0.007,0.01
234981,9.529,-0.227,2.294,-0.007,0.008,0.009
235084,9.529,-0.22,2.282,-0.007,0.007,0.009
235187,9.529,-0.215,2.289,-0.007,0.007,0.01
235290,9.536,-0.237,2.294,-0.007,0.007,0.01
235393,9.538,-0.218,2.284,-0.007,0.007,0.009
235496,9.531,-0.23,2.284,-0.007,0.007,0.01
235599,9.522,-0.213,2.284,-0.007,0.008,0.009
235702,9.527,-0.218,2.286,-0.007,0.007,0.01
235805,9.529,-0.225,2.279,-0.007,0.007,0.01
235908,9.531,-0.223,2.282,-0.007,0.007,0.01
236011,9.536,-0.22,2.289,-0.007,0.007,0.009
236114,9.534,-0.225,2.298,-0.007,0.007,0.009
236217,9.531,-0.22,2.284,-0.007,0.007,0.009
236320,9.531,-0.215,2.284,-0.007,0.007,0.01
236423,9.536,-0.225,2.294,-0.007,0.007,0.01
236526,9.541,-0.225,2.308,-0.007,0.007,0.009
236629,9.534,-0.215,2.294,-0.007,0.007,0.01
236732,9.529,-0.213,2.289,-0.006,0.007,0.009
236835,9.534,-0.215,2.298,-0.007,0.007,0.009
236938,9.536,-0.22,2.291,-0.007,0.007,0.01
237041,9.531,-0.22,2.294,-0.007,0.007,0.01
237144,9.536,-0.213,2.291,-0.007,0.007,0.01
237247,9.519,-0.23,2.289,-0.007,0.007,0.009
237350,9.524,-0.22,2.284,-0.006,0.007,0.009
237453,9.529,-0.215,2.279,-0.007,0.007,0.009
237556,9.529,-0.223,2.291,-0.007,0.007,0.01
237659,9.534,-0.218,2.294,-0.006,0.007,0.01
237762,9.529,-0.215,2.289,-0.007,0.007,0.009
237865,9.534,-0.215,2.286,-0.007,0.007,0.01
237968,9.543,-0.218,2.294,-0.007,0.007,0.009
238071,9.534,-0.218,2.286,-0.007,0.007,0.009
238174,9.529,-0.218,2.286,-0.007,0.007,0.009
238277,9.531,-0.22,2.289,-0.007,0.007,0.01
238380,9.524,-0.223,2.289,-0.007,0.007,0.009
238483,9.534,-0.225,2.296,-0.007,0.007,0.01
238586,9.541,-0.218,2.294,-0.007,0.007,0.01
238689,9.536,-0.223,2.282,-0.007,0.007,0.01
238792,9.541,-0.22,2.289,-0.007,0.007,0.009
238895,9.534,-0.227,2.274,-0.007,0.007,0.01
238998,9.527,-0.215,2.27,-0.007,0.007,0.01
239101,9.529,-0.211,2.308,-0.007,0.007,0.009
239204,9.519,-0.223,2.284,-0.007,0.007,0.01
239307,9.536,-0.215,2.301,-0.007,0.007,0.01
239410,9.534,-0.22,2.294,-0.007,0.007,0.01
239513,9.519,-0.215,2.277,-0.007,0.007,0.01
239616,9.536,-0.218,2.286,-0.007,0.007,0.01
239719,9.541,-0.215,2.284,-0.007,0.007,0.01
239822,9.527,-0.223,2.291,-0.006,0.007,0.009
239925,9.531,-0.215,2.296,-0.007,0.007,0.009
240028,9.527,-0.22,2.284,-0.007,0.007,0.01
240131,9.524,-0.223,2.298,-0.006,0.007,0.01
240234,9.536,-0.223,2.308,-0.007,0.007,0.009
240337,9.529,-0.23,2.294,-0.007,0.006,0.01
240440,9.538,-0.211,2.282,-0.007,0.007,0.009
240543,9.531,-0.22,2.296,-0.007,0.007,0.009
240646,9.538,-0.22,2.303,-0.007,0.008,0.009
240749,9.536,-0.22,2.294,-0.007,0.007,0.01
240852,9.534,-0.22,2.298,-0.007,0.007,0.01
240955,9.529,-0.22,2.289,-0.006,0.007,0.01
241058,9.538,-0.204,2.377,-0.005,0.306,0.035
241161,9.498,-0.244,2.555,-0.008,0.041,0.01
241264,9.488,-0.244,2.54,-0.006,0.009,0.008
241367,9.488,-0.239,2.543,-0.007,0.007,0.008
241470,9.479,-0.249,2.528,-0.007,0.007,0.007
241573,9.479,-0.239,2.545,-0.007,0.007,0.008
241676,9.476,-0.239,2.55,-0.007,0.007,0.007
241779,9.471,-0.244,2.538,-0.007,0.007,0.008
241882,9.483,-0.239,2.533,-0.007,0.007,0.009
241985,9.483,-0.244,2.528,-0.007,0.007,0.009
242088,9.481,-0.244,2.545,-0.007,0.007,0.007
242191,9.483,-0.237,2.538,-0.007,0.007,0.009
242294,9.467,-0.247,2.54,-0.007,0.007,0.008
242397,9.483,-0.247,2.545,-0.007,0.007,0.008
242500,9.488,-0.237,2.545,-0.007,0.007,0.008
242603,9.488,-0.244,2.54,-0.007,0.007,0.008
242706,9.491,-0.227,2.552,-0.007,0.007,0.008
242809,9.481,-0.239,2.547,-0.007,0.007,0.008
242912,9.476,-0.235,2.545,-0.007,0.007,0.008
243015,9.481,-0.242,2.535,-0.007,0.007,0.008
243118,9.471,-0.242,2.535,-0.007,0.007,0.008
243221,9.488,-0.247,2.538,-0.007,0.007,0.008
243324,9.481,-0.239,2.535,-0.007,0.007,0.008
243427,9.479,-0.254,2.533,-0.007,0.007,0.008
243530,9.488,-0.247,2.54,-0.007,0.007,0.009
243633,9.483,-0.247,2.552,-0.007,0.007,0.009
243736,9.488,-0.251,2.533,-0.007,0.007,0.008
243839,9.479,-0.242,2.528,-0.007,0.007,0.009
243942,9.474,-0.235,2.543,-0.007,0.007,0.008
244045,9.483,-0.254,2.538,-0.007,0.007,0.008
244148,9.498,-0.237,2.54,-0.007,0.007,0.007
244251,9.483,-0.244,2.526,-0.007,0.007,0.008
244354,9.493,-0.237,2.543,-0.007,0.007,0.008
244457,9.481,-0.254,2.562,-0.007,0.007,0.009
244560,9.483,-0.249,2.528,-0.007,0.007,0.008
244663,9.483,-0.244,2.538,-0.007,0.007,0.008
244766,9.486,-0.247,2.543,-0.007,0.007,0.009
244869,9.483,-0.244,2.559,-0.007,0.007,0.009
244972,9.481,-0.244,2.531,-0.007,0.007,0.008
245075,9.491,-0.251,2.54,-0.007,0.007,0.008
245178,9.5,-0.242,2.535,-0.007,0.007,0.009
245281,9.486,-0.251,2.538,-0.008,0.007,0.008
245384,9.486,-0.242,2.538,-0.007,0.007,0.008
245487,9.481,-0.244,2.543,-0.007,0.007,0.009
245590,9.479,-0.239,2.567,-0.007,0.007,0.009
245693,9.476,-0.237,2.543,-0.007,0.007,0.008
245796,9.481,-0.235,2.547,-0.007,0.007,0.008
245899,9.476,-0.247,2.55,-0.007,0.007,0.008
246002,9.476,-0.242,2.552,-0.006,0.007,0.008
246105,9.483,-0.239,2.55,-0.007,0.007,0.009
246208,9.471,-0.247,2.538,-0.007,0.007,0.009
246311,9.474,-0.237,2.538,-0.007,0.007,0.008
246414,9.493,-0.244,2.535,-0.007,0.007,0.009
246517,9.481,-0.249,2.535,-0.006,0.007,0.009
246620,9.486,-0.239,2.552,-0.007,0.007,0.008
246723,9.483,-0.239,2.555,-0.007,0.007,0.009
246826,9.476,-0.242,2.535,-0.007,0.007,0.008
246929,9.479,-0.244,2.552,-0.007,0.007,0.009
247032,9.476,-0.239,2.552,-0.007,0.007,0.009
247135,9.479,-0.239,2.547,-0.007,0.007,0.009
247238,9.486,-0.237,2.54,-0.007,0.007,0.008
247341,9.483,-0.247,2.54,-0.007,0.007,0.008
247444,9.483,-0.242,2.552,-0.007,0.007,0.008
247547,9.479,-0.247,2.528,-0.007,0.007,0.008
247650,9.474,-0.242,2.547,-0.007,0.007,0.008
247753,9.481,-0.247,2.547,-0.007,0.007,0.008
247856,9.476,-0.237,2.547,-0.007,0.007,0.008
247959,9.483,-0.239,2.535,-0.007,0.007,0.009
248062,9.483,-0.251,2.533,-0.007,0.007,0.009
248165,9.481,-0.249,2.543,-0.007,0.007,0.009
248268,9.486,-0.244,2.55,-0.007,0.007,0.009
248371,9.479,-0.249,2.555,-0.007,0.007,0.008
248474,9.469,-0.244,2.54,-0.007,0.007,0.009
248577,9.488,-0.249,2.552,-0.007,0.007,0.008
248680,9.476,-0.249,2.538,-0.007,0.006,0.009
248783,9.481,-0.249,2.557,-0.007,0.007,0.009
248886,9.476,-0.244,2.543,-0.007,0.007,0.008
248989,9.471,-0.242,2.545,-0.008,0.007,0.009
249092,9.488,-0.239,2.54,-0.007,0.007,0.008
249195,9.476,-0.237,2.543,-0.007,0.007,0.008
249298,9.481,-0.239,2.535,-0.006,0.007,0.008
249401,9.483,-0.242,2.562,-0.007,0.007,0.009
249504,9.474,-0.242,2.562,-0.007,0.007,0.009
249607,9.483,-0.239,2.545,-0.007,0.007,0.008
249710,9.479,-0.244,2.55,-0.007,0.007,0.008
249813,9.474,-0.244,2.55,-0.007,0.007,0.009
249916,9.486,-0.237,2.54,-0.007,0.007,0.008
250019,9.481,-0.242,2.552,-0.007,0.007,0.008
250122,9.479,-0.237,2.538,-0.007,0.007,0.009
250225,9.474,-0.251,2.55,-0.006,0.007,0.008
250328,9.483,-0.249,2.567,-0.007,0.007,0.008
250431,9.483,-0.237,2.547,-0.007,0.007,0.009
250534,9.488,-0.244,2.538,-0.006,0.007,0.008
250637,9.483,-0.251,2.543,-0.007,0.007,0.009
250740,9.481,-0.237,2.545,-0.007,0.007,0.009
250843,9.491,-0.242,2.547,-0.007,0.007,0.009
250946,9.483,-0.247,2.543,-0.007,0.006,0.009
251049,9.479,-0.254,2.545,-0.007,0.006,0.009
251152,9.488,-0.242,2.547,-0.007,0.006,0.009
251255,9.476,-0.242,2.55,-0.007,0.007,0.009
251358,9.491,-0.244,2.543,-0.007,0.007,0.009
251461,9.491,-0.247,2.54,-0.007,0.007,0.009
251564,9.467,-0.249,2.55,-0.007,0.007,0.009
251667,9.483,-0.237,2.543,-0.007,0.007,0.008
251770,9.486,-0.235,2.538,-0.007,0.007,0.009
251873,9.479,-0.23,2.526,-0.007,0.008,0.008
251976,9.481,-0.244,2.55,-0.007,0.007,0.008
252079,9.481,-0.244,2.538,-0.007,0.007,0.009
252182,9.493,-0.244,2.531,-0.007,0.007,0.009
252285,9.486,-0.249,2.54,-0.007,0.007,0.009
252388,9.476,-0.242,2.543,-0.007,0.007,0.008
252491,9.483,-0.247,2.535,-0.007,0.007,0.008
252594,9.486,-0.249,2.543,-0.007,0.007,0.009
252697,9.479,-0.247,2.538,-0.007,0.007,0.008
252800,9.483,-0.251,2.55,-0.007,0.007,0.008
252903,9.488,-0.249,2.545,-0.007,0.007,0.009
253006,9.483,-0.254,2.545,-0.007,0.007,0.009
253109,9.479,-0.254,2.55,-0.007,0.007,0.009
253212,9.476,-0.247,2.543,-0.007,0.007,0.009
253315,9.491,-0.242,2.55,-0.007,0.007,0.008
253418,9.483,-0.251,2.54,-0.007,0.007,0.009
253521,9.476,-0.242,2.552,-0.007,0.007,0.008
253624,9.481,-0.256,2.547,-0.007,0.007,0.009
253727,9.483,-0.237,2.533,-0.007,0.007,0.009
253830,9.481,-0.232,2.543,-0.007,0.007,0.009
253933,9.479,-0.242,2.535,-0.007,0.007,0.008
254036,9.491,-0.247,2.54,-0.007,0.007,0.008
254139,9.483,-0.251,2.54,-0.007,0.007,0.008
254242,9.476,-0.239,2.538,-0.007,0.007,0.009
254345,9.476,-0.251,2.543,-0.007,0.007,0.009
254448,9.483,-0.242,2.557,-0.007,0.007,0.008
254551,9.481,-0.244,2.54,-0.007,0.007,0.009
254654,9.476,-0.254,2.555,-0.007,0.007,0.009
254757,9.491,-0.242,2.543,-0.007,0.007,0.008
254860,9.479,-0.242,2.538,-0.007,0.007,0.008
254963,9.486,-0.244,2.557,-0.007,0.007,0.009
255066,9.488,-0.239,2.543,-0.007,0.007,0.009
255169,9.474,-0.254,2.545,-0.007,0.006,0.009
255272,9.486,-0.247,2.557,-0.007,0.007,0.009
255375,9.486,-0.247,2.552,-0.007,0.007,0.009
255478,9.471,-0.254,2.545,-0.007,0.007,0.009
255581,9.481,-0.249,2.552,-0.007,0.007,0.009
255684,9.495,-0.251,2.557,-0.007,0.007,0.009
255787,9.479,-0.239,2.538,-0.007,0.007,0.008
255890,9.488,-0.242,2.54,-0.007,0.007,0.009
255993,9.474,-0.247,2.545,-0.007,0.007,0.009
256096,9.476,-0.244,2.543,-0.007,0.007,0.009
256199,9.469,-0.249,2.557,-0.007,0.007,0.009
256302,9.483,-0.247,2.54,-0.007,0.006,0.009
256405,9.481,-0.242,2.552,-0.006,0.007,0.009
256508,9.488,-0.242,2.54,-0.007,0.006,0.008
256611,9.469,-0.237,2.543,-0.007,0.007,0.009
256714,9.488,-0.247,2.552,-0.007,0.007,0.009
256817,9.479,-0.235,2.55,-0.007,0.006,0.009
256920,9.483,-0.242,2.552,-0.007,0.007,0.008
257023,9.486,-0.242,2.538,-0.007,0.007,0.009
257126,9.481,-0.247,2.547,-0.007,0.007,0.008
257229,9.479,-0.254,2.559,-0.007,0.007,0.008
257332,9.481,-0.242,2.562,-0.007,0.007,0.009
257435,9.476,-0.249,2.543,-0.007,0.007,0.009
257538,9.491,-0.235,2.543,-0.007,0.007,0.009
257641,9.481,-0.244,2.538,-0.007,0.007,0.009
257744,9.476,-0.244,2.557,-0.007,0.007,0.009
257847,9.488,-0.251,2.557,-0.007,0.007,0.009
257950,9.483,-0.235,2.54,-0.007,0.006,0.009
258053,9.474,-0.244,2.547,-0.007,0.007,0.008
258156,9.488,-0.247,2.531,-0.007,0.007,0.008
258259,9.483,-0.235,2.533,-0.007,0.007,0.009
258362,9.481,-0.239,2.555,-0.007,0.007,0.009
258465,9.483,-0.242,2.555,-0.007,0.007,0.009
258568,9.476,-0.239,2.528,-0.007,0.007,0.008
258671,9.488,-0.249,2.545,-0.006,0.007,0.008
258774,9.479,-0.251,2.538,-0.007,0.007,0.009
258877,9.483,-0.244,2.54,-0.007,0.007,0.008
258980,9.476,-0.249,2.552,-0.006,0.007,0.009
259083,9.476,-0.244,2.538,-0.007,0.007,0.009
259186,9.479,-0.242,2.559,-0.007,0.007,0.009
259289,9.486,-0.251,2.552,-0.007,0.007,0.009
259392,9.474,-0.242,2.535,-0.007,0.007,0.009
259495,9.483,-0.251,2.557,-0.007,0.007,0.008
259598,9.483,-0.244,2.543,-0.007,0.007,0.009
259701,9.481,-0.244,2.547,-0.007,0.007,0.008
259804,9.481,-0.251,2.538,-0.007,0.007,0.009
259907,9.483,-0.249,2.545,-0.007,0.007,0.008
260010,9.481,-0.242,2.545,-0.007,0.007,0.009
260113,9.481,-0.242,2.538,-0.007,0.008,0.008
260216,9.471,-0.244,2.545,-0.007,0.007,0.009
260319,9.483,-0.239,2.552,-0.007,0.007,0.008
260422,9.486,-0.242,2.562,-0.007,0.007,0.009
260525,9.481,-0.237,2.54,-0.007,0.007,0.009
260628,9.481,-0.242,2.559,-0.007,0.007,0.009
260731,9.483,-0.247,2.545,-0.007,0.007,0.009
260834,9.479,-0.249,2.559,-0.007,0.007,0.008
260937,9.476,-0.242,2.552,-0.007,0.007,0.009
261040,9.476,-0.239,2.535,-0.007,0.007,0.009
261143,9.481,-0.237,2.543,-0.007,0.007,0.009
261246,9.486,-0.249,2.557,-0.007,0.007,0.009
261349,9.471,-0.244,2.543,-0.007,0.007,0.009
261452,9.474,-0.242,2.545,-0.007,0.007,0.008
261555,9.479,-0.232,2.545,-0.007,0.007,0.009
261658,9.481,-0.244,2.547,-0.007,0.007,0.009
261761,9.486,-0.247,2.555,-0.007,0.007,0.009
261864,9.483,-0.254,2.557,-0.007,0.007,0.008
261967,9.464,-0.259,2.552,-0.006,0.007,0.009
262070,9.486,-0.244,2.555,-0.007,0.007,0.008
262173,9.483,-0.237,2.533,-0.007,0.007,0.009
262276,9.483,-0.242,2.562,-0.007,0.007,0.008
262379,9.486,-0.237,2.555,-0.007,0.007,0.009
262482,9.476,-0.244,2.54,-0.007,0.007,0.009
262585,9.476,-0.237,2.55,-0.007,0.007,0.008
262688,9.491,-0.239,2.543,-0.007,0.006,0.009
262791,9.483,-0.237,2.55,-0.007,0.007,0.009
262894,9.479,-0.235,2.543,-0.007,0.007,0.009
262997,9.479,-0.247,2.545,-0.007,0.007,0.009
263100,9.476,-0.237,2.547,-0.007,0.007,0.009
263203,9.476,-0.251,2.552,-0.007,0.007,0.009
263306,9.464,-0.232,2.54,-0.007,0.007,0.008
263409,9.486,-0.242,2.54,-0.007,0.007,0.009
263512,9.476,-0.247,2.547,-0.007,0.007,0.009
263615,9.479,-0.239,2.528,-0.007,0.007,0.009
263718,9.481,-0.237,2.559,-0.007,0.007,0.009
263821,9.469,-0.242,2.555,-0.007,0.007,0.009
263924,9.479,-0.251,2.557,-0.007,0.007,0.008
264027,9.476,-0.242,2.552,-0.007,0.007,0.009
264130,9.481,-0.251,2.54,-0.007,0.007,0.009
264233,9.491,-0.239,2.543,-0.007,0.007,0.009
264336,9.486,-0.237,2.55,-0.007,0.008,0.008
264439,9.486,-0.249,2.545,-0.007,0.007,0.008
264542,9.481,-0.244,2.555,-0.007,0.007,0.008
264645,9.483,-0.244,2.55,-0.007,0.007,0.008
264748,9.486,-0.249,2.545,-0.007,0.007,0.009
264851,9.486,-0.249,2.552,-0.007,0.007,0.009
264954,9.483,-0.249,2.552,-0.007,0.008,0.009
265057,9.486,-0.247,2.552,-0.007,0.007,0.008
265160,9.483,-0.239,2.552,-0.007,0.007,0.008
265263,9.481,-0.244,2.531,-0.007,0.007,0.009
265366,9.483,-0.237,2.54,-0.007,0.007,0.008
265469,9.495,-0.237,2.547,-0.007,0.007,0.009
265572,9.479,-0.232,2.543,-0.007,0.007,0.009
265675,9.486,-0.247,2.543,-0.007,0.007,0.008
265778,9.481,-0.247,2.543,-0.007,0.007,0.008
265881,9.483,-0.242,2.557,-0.007,0.007,0.009
265984,9.488,-0.232,2.552,-0.007,0.007,0.009
266087,9.471,-0.247,2.543,-0.007,0.008,0.009
266190,9.479,-0.244,2.55,-0.007,0.007,0.009
266293,9.481,-0.247,2.559,-0.007,0.007,0.009
266396,9.471,-0.244,2.547,-0.007,0.007,0.008
266499,9.488,-0.247,2.533,-0.007,0.007,0.008
266602,9.486,-0.239,2.538,-0.007,0.007,0.009
266705,9.486,-0.249,2.54,-0.007,0.007,0.009
266808,9.479,-0.239,2.547,-0.006,0.007,0.008
266911,9.483,-0.251,2.547,-0.007,0.007,0.009
267014,9.481,-0.239,2.545,-0.007,0.006,0.008
267117,9.488,-0.242,2.54,-0.007,0.007,0.008
267220,9.486,-0.244,2.543,-0.007,0.007,0.009
267323,9.486,-0.242,2.54,-0.007,0.007,0.008
267426,9.488,-0.244,2.543,-0.007,0.007,0.008
267529,9.488,-0.249,2.543,-0.007,0.007,0.008
267632,9.486,-0.249,2.538,-0.007,0.007,0.009
267735,9.479,-0.251,2.555,-0.007,0.007,0.009
267838,9.483,-0.247,2.55,-0.007,0.007,0.008
267941,9.488,-0.242,2.55,-0.007,0.007,0.009
268044,9.481,-0.247,2.547,-0.007,0.007,0.009
268147,9.488,-0.254,2.535,-0.007,0.007,0.008
268250,9.479,-0.244,2.545,-0.007,0.007,0.008
268353,9.491,-0.239,2.531,-0.007,0.007,0.009
268456,9.476,-0.244,2.54,-0.007,0.007,0.009
268559,9.479,-0.247,2.533,-0.007,0.007,0.009
268662,9.486,-0.244,2.552,-0.007,0.007,0.009
268765,9.483,-0.247,2.538,-0.007,0.007,0.009
268868,9.481,-0.244,2.547,-0.008,0.007,0.008
268971,9.476,-0.249,2.547,-0.007,0.007,0.008
269074,9.481,-0.242,2.54,-0.007,0.007,0.009
269177,9.481,-0.237,2.538,-0.007,0.007,0.009
269280,9.488,-0.251,2.54,-0.007,0.007,0.008
269383,9.486,-0.242,2.559,-0.007,0.007,0.009
269486,9.495,-0.247,2.535,-0.007,0.007,0.009
269589,9.481,-0.247,2.547,-0.006,0.007,0.009
269692,9.483,-0.247,2.55,-0.007,0.007,0.009
269795,9.488,-0.256,2.55,-0.007,0.007,0.008
269898,9.483,-0.242,2.538,-0.007,0.008,0.009
270001,9.471,-0.247,2.555,-0.007,0.007,0.009
270104,9.481,-0.239,2.562,-0.007,0.007,0.009
270207,9.488,-0.242,2.552,-0.007,0.007,0.008
270310,9.481,-0.247,2.545,-0.007,0.006,0.008
270413,9.476,-0.247,2.552,-0.007,0.007,0.008
270516,9.474,-0.254,2.562,-0.007,0.007,0.009
270619,9.488,-0.251,2.55,-0.007,0.007,0.009
270722,9.483,-0.247,2.555,-0.007,0.007,0.008
270825,9.481,-0.247,2.557,-0.007,0.007,0.009
270928,9.491,-0.244,2.569,-0.007,0.007,0.008
271031,9.483,-0.237,2.557,-0.007,0.007,0.009
271134,9.488,-0.242,2.555,-0.007,0.007,0.009
271237,9.483,-0.244,2.555,-0.007,0.007,0.009
271340,9.491,-0.244,2.564,-0.007,0.007,0.009
271443,9.474,-0.244,2.545,-0.007,0.007,0.009
271546,9.483,-0.242,2.562,-0.007,0.007,0.009
271649,9.493,-0.249,2.547,-0.007,0.007,0.009
271752,9.481,-0.254,2.543,-0.007,0.007,0.009
271855,9.481,-0.242,2.55,-0.007,0.007,0.009
271958,9.481,-0.237,2.545,-0.007,0.007,0.009
272061,9.481,-0.239,2.533,-0.007,0.007,0.008
272164,9.479,-0.259,2.545,-0.007,0.007,0.009
272267,9.471,-0.242,2.54,-0.007,0.007,0.009
272370,9.486,-0.242,2.555,-0.007,0.007,0.009
272473,9.483,-0.247,2.54,-0.007,0.007,0.009
272576,9.483,-0.249,2.55,-0.007,0.007,0.009
272679,9.483,-0.249,2.552,-0.007,0.007,0.008
272782,9.481,-0.239,2.552,-0.007,0.007,0.008
272885,9.469,-0.237,2.54,-0.007,0.007,0.008
272988,9.483,-0.254,2.55,-0.007,0.007,0.009
273091,9.486,-0.227,2.538,-0.007,0.007,0.009
273194,9.486,-0.237,2.555,-0.007,0.007,0.008
273297,9.476,-0.23,2.545,-0.007,0.007,0.009
273400,9.471,-0.237,2.533,-0.007,0.007,0.009
273503,9.483,-0.247,2.538,-0.006,0.007,0.009
273606,9.486,-0.247,2.547,-0.007,0.007,0.009
273709,9.479,-0.247,2.543,-0.007,0.007,0.009
273812,9.479,-0.249,2.552,-0.007,0.007,0.008
273915,9.474,-0.247,2.547,-0.007,0.007,0.009
274018,9.486,-0.242,2.547,-0.007,0.007,0.008
274121,9.481,-0.242,2.552,-0.007,0.007,0.008
274224,9.476,-0.254,2.557,-0.007,0.007,0.009
274327,9.479,-0.247,2.54,-0.007,0.007,0.009
274430,9.488,-0.247,2.545,-0.007,0.007,0.009
274533,9.486,-0.254,2.555,-0.007,0.007,0.009
274636,9.481,-0.247,2.538,-0.006,0.007,0.008
274739,9.493,-0.249,2.557,-0.007,0.007,0.009
274842,9.476,-0.249,2.545,-0.007,0.007,0.009
274945,9.493,-0.247,2.557,-0.007,0.007,0.009
275048,9.479,-0.239,2.54,-0.007,0.007,0.009
275151,9.476,-0.249,2.543,-0.007,0.007,0.009
275254,9.488,-0.254,2.547,-0.007,0.007,0.009
275357,9.479,-0.247,2.547,-0.007,0.007,0.009
275460,9.483,-0.244,2.545,-0.007,0.007,0.008
275563,9.486,-0.251,2.552,-0.007,0.007,0.009
275666,9.469,-0.244,2.55,-0.007,0.007,0.009
275769,9.488,-0.242,2.54,-0.007,0.007,0.009
275872,9.476,-0.249,2.555,-0.007,0.007,0.009
275975,9.481,-0.254,2.552,-0.007,0.007,0.009
276078,9.491,-0.242,2.562,-0.007,0.007,0.008
276181,9.488,-0.237,2.543,-0.007,0.007,0.009
276284,9.483,-0.249,2.54,-0.007,0.007,0.009
276387,9.479,-0.237,2.559,-0.007,0.007,0.009
276490,9.483,-0.249,2.54,-0.007,0.007,0.009
276593,9.491,-0.239,2.545,-0.007,0.007,0.008
276696,9.483,-0.247,2.55,-0.007,0.007,0.009
276799,9.483,-0.239,2.54,-0.006,0.007,0.008
276902,9.491,-0.242,2.555,-0.006,0.007,0.009
277005,9.483,-0.251,2.557,-0.007,0.007,0.009
277108,9.488,-0.244,2.543,-0.006,0.007,0.009
277211,9.493,-0.239,2.538,-0.007,0.007,0.009
277314,9.479,-0.244,2.545,-0.007,0.007,0.008
277417,9.476,-0.237,2.545,-0.007,0.007,0.008
277520,9.474,-0.247,2.547,-0.007,0.007,0.009
277623,9.486,-0.244,2.54,-0.007,0.007,0.009
277726,9.488,-0.242,2.564,-0.007,0.007,0.008
277829,9.474,-0.249,2.564,-0.007,0.007,0.009
277932,9.479,-0.232,2.55,-0.007,0.007,0.008
278035,9.476,-0.247,2.559,-0.007,0.007,0.009
278138,9.474,-0.244,2.545,-0.007,0.006,0.008
278241,9.488,-0.242,2.54,-0.007,0.007,0.009
278344,9.481,-0.239,2.547,-0.007,0.008,0.008
278447,9.481,-0.249,2.543,-0.007,0.007,0.009
278550,9.476,-0.237,2.555,-0.007,0.007,0.009
278653,9.483,-0.239,2.555,-0.007,0.007,0.009
278756,9.481,-0.242,2.55,-0.007,0.007,0.009
278859,9.481,-0.239,2.547,-0.006,0.007,0.008
278962,9.483,-0.249,2.543,-0.007,0.007,0.009
