time (ms),acceleration x,acceleration y,acceleration z,gyro x,gyro y,gyro z
655,-9.826,-0.053,1.851,-0.005,0.012,-0.02
758,-9.838,-0.048,1.832,-0.004,0.012,-0.02
861,-9.838,-0.057,1.841,-0.004,0.012,-0.02
964,-9.84,-0.06,1.853,-0.005,0.012,-0.02
1067,-9.838,-0.055,1.856,-0.004,0.013,-0.02
1170,-9.833,-0.045,1.846,-0.004,0.012,-0.02
1273,-9.828,-0.057,1.87,-0.004,0.012,-0.02
1376,-9.823,-0.05,1.863,-0.004,0.012,-0.02
1479,-9.838,-0.055,1.865,-0.004,0.012,-0.02
1582,-9.831,-0.06,1.846,-0.004,0.012,-0.019
1685,-9.833,-0.05,1.841,-0.004,0.012,-0.02
1788,-9.823,-0.045,1.844,-0.004,0.012,-0.02
1891,-9.84,-0.062,1.836,-0.004,0.011,-0.02
1994,-9.835,-0.053,1.846,-0.005,0.012,-0.02
2097,-9.838,-0.043,1.851,-0.004,0.012,-0.019
2200,-9.828,-0.05,1.853,-0.004,0.013,-0.02
2303,-9.828,-0.05,1.851,-0.004,0.012,-0.02
2406,-9.838,-0.055,1.856,-0.004,0.012,-0.019
2509,-9.826,-0.055,1.86,-0.004,0.012,-0.019
2612,-9.835,-0.055,1.841,-0.004,0.013,-0.02
2715,-9.826,-0.05,1.865,-0.004,0.012,-0.02
2818,-9.831,-0.057,1.858,-0.004,0.012,-0.02
2921,-9.831,-0.053,1.836,-0.004,0.012,-0.02
3024,-9.833,-0.055,1.858,-0.004,0.012,-0.02
3127,-9.833,-0.053,1.844,-0.004,0.012,-0.02
3230,-9.833,-0.053,1.851,-0.004,0.012,-0.02
3333,-9.833,-0.055,1.856,-0.004,0.012,-0.02
3436,-9.835,-0.057,1.844,-0.004,0.012,-0.02
3539,-9.835,-0.057,1.846,-0.004,0.012,-0.02
3642,-9.835,-0.053,1.851,-0.004,0.012,-0.02
3745,-9.84,-0.057,1.848,-0.004,0.012,-0.02
3848,-9.831,-0.055,1.848,-0.005,0.011,-0.02
3951,-9.833,-0.057,1.846,-0.005,0.012,-0.02
4054,-9.845,-0.045,1.858,-0.004,0.012,-0.02
4157,-9.838,-0.065,1.848,-0.004,0.012,-0.02
4260,-9.838,-0.045,1.848,-0.004,0.012,-0.02
4363,-9.833,-0.05,1.858,-0.004,0.012,-0.02
4466,-9.835,-0.053,1.836,-0.004,0.013,-0.02
4569,-9.84,-0.057,1.848,-0.004,0.012,-0.02
4672,-9.828,-0.065,1.841,-0.004,0.012,-0.02
4775,-9.838,-0.057,1.839,-0.004,0.013,-0.019
4878,-9.826,-0.053,1.853,-0.004,0.012,-0.02
4981,-9.823,-0.057,1.856,-0.004,0.011,-0.02
5084,-9.833,-0.05,1.86,-0.004,0.012,-0.02
5187,-9.838,-0.065,1.846,-0.004,0.012,-0.019
5290,-9.838,-0.053,1.848,-0.004,0.012,-0.02
5393,-9.845,-0.055,1.851,-0.004,0.012,-0.02
5496,-9.831,-0.053,1.848,-0.004,0.011,-0.019
5599,-9.835,-0.062,1.856,-0.004,0.011,-0.02
5702,-9.819,-0.045,1.829,-0.004,0.012,-0.02
5805,-9.843,-0.053,1.853,-0.004,0.012,-0.02
5908,-9.831,-0.053,1.836,-0.005,0.012,-0.02
6011,-9.835,-0.062,1.853,-0.005,0.012,-0.02
6114,-9.828,-0.05,1.856,-0.005,0.012,-0.019
6217,-9.831,-0.06,1.856,-0.005,0.012,-0.02
6320,-9.833,-0.053,1.846,-0.005,0.012,-0.02
6423,-9.833,-0.053,1.863,-0.004,0.012,-0.019
6526,-9.835,-0.057,1.848,-0.004,0.012,-0.02
6629,-9.835,-0.067,1.853,-0.004,0.012,-0.019
6732,-9.831,-0.057,1.841,-0.005,0.012,-0.02
6835,-9.828,-0.055,1.839,-0.004,0.012,-0.02
6938,-9.821,-0.055,1.851,-0.005,0.012,-0.02
7041,-9.823,-0.057,1.844,-0.005,0.011,-0.02
7144,-9.838,-0.05,1.841,-0.004,0.013,-0.02
7247,-9.831,-0.06,1.863,-0.004,0.012,-0.019
7350,-9.828,-0.057,1.846,-0.004,0.011,-0.02
7453,-9.833,-0.055,1.846,-0.005,0.011,-0.02
7556,-9.833,-0.062,1.848,-0.004,0.012,-0.02
7659,-9.835,-0.053,1.853,-0.004,0.012,-0.019
7762,-9.821,-0.06,1.851,-0.005,0.012,-0.02
7865,-9.823,-0.06,1.834,-0.004,0.012,-0.019
7968,-9.821,-0.057,1.839,-0.004,0.012,-0.019
8071,-9.843,-0.05,1.853,-0.004,0.012,-0.02
8174,-9.833,-0.053,1.841,-0.004,0.012,-0.02
8277,-9.838,-0.053,1.846,-0.005,0.012,-0.02
8380,-9.828,-0.053,1.841,-0.004,0.012,-0.02
8483,-9.828,-0.057,1.846,-0.005,0.012,-0.021
8586,-9.838,-0.05,1.851,-0.004,0.012,-0.02
8689,-9.826,-0.05,1.853,-0.004,0.011,-0.02
8792,-9.843,-0.057,1.858,-0.004,0.012,-0.021
8895,-9.826,-0.043,1.829,-0.005,0.012,-0.02
8998,-9.835,-0.05,1.851,-0.004,0.012,-0.02
9101,-9.826,-0.05,1.858,-0.005,0.012,-0.02
9204,-9.831,-0.057,1.841,-0.005,0.012,-0.02
9307,-9.833,-0.045,1.834,-0.005,0.012,-0.02
9410,-9.833,-0.05,1.846,-0.005,0.012,-0.02
9513,-9.835,-0.05,1.858,-0.005,0.012,-0.02
9616,-9.833,-0.055,1.844,-0.004,0.012,-0.02
9719,-9.838,-0.065,1.853,-0.005,0.012,-0.02
9822,-9.828,-0.053,1.846,-0.004,0.012,-0.02
9925,-9.831,-0.053,1.851,-0.004,0.012,-0.02
10028,-9.828,-0.053,1.846,-0.005,0.012,-0.02
10131,-9.833,-0.055,1.839,-0.004,0.012,-0.02
10234,-9.831,-0.067,1.846,-0.004,0.012,-0.02
10337,-9.84,-0.06,1.836,-0.005,0.012,-0.02
10440,-9.831,-0.057,1.848,-0.005,0.012,-0.02
10543,-9.833,-0.05,1.846,-0.004,0.012,-0.02
10646,-9.833,-0.055,1.853,-0.004,0.012,-0.02
10749,-9.84,-0.055,1.836,-0.004,0.012,-0.02
10852,-9.833,-0.053,1.839,-0.004,0.012,-0.02
10955,-9.833,-0.06,1.86,-0.004,0.012,-0.02
11058,-9.84,-0.045,1.846,-0.004,0.012,-0.02
11161,-9.821,-0.053,1.841,-0.005,0.013,-0.019
11264,-9.826,-0.055,1.858,-0.004,0.012,-0.021
11367,-9.831,-0.055,1.839,-0.005,0.012,-0.021
11470,-9.828,-0.05,1.829,-0.004,0.012,-0.019
11573,-9.835,-0.057,1.853,-0.004,0.011,-0.02
11676,-9.833,-0.043,1.858,-0.004,0.012,-0.02
11779,-9.831,-0.057,1.839,-0.005,0.012,-0.02
11882,-9.845,-0.055,1.848,-0.004,0.011,-0.02
11985,-9.828,-0.055,1.851,-0.004,0.012,-0.02
12088,-9.84,-0.053,1.841,-0.005,0.012,-0.02
12191,-9.845,-0.045,1.834,-0.005,0.012,-0.019
12294,-9.833,-0.05,1.841,-0.005,0.012,-0.02
12397,-9.831,-0.05,1.846,-0.004,0.012,-0.02
12500,-9.843,-0.06,1.863,-0.005,0.012,-0.019
12603,-9.833,-0.053,1.846,-0.005,0.012,-0.019
12706,-9.838,-0.057,1.836,-0.004,0.012,-0.02
12809,-9.826,-0.055,1.824,-0.004,0.012,-0.02
12912,-9.831,-0.045,1.841,-0.004,0.011,-0.019
13015,-9.838,-0.057,1.844,-0.005,0.012,-0.02
13118,-9.826,-0.055,1.848,-0.004,0.013,-0.02
13221,-9.833,-0.05,1.844,-0.005,0.012,-0.02
13324,-9.831,-0.048,1.836,-0.004,0.012,-0.02
13427,-9.833,-0.053,1.829,-0.004,0.012,-0.02
13530,-9.831,-0.057,1.848,-0.004,0.012,-0.02
13633,-9.835,-0.048,1.851,-0.004,0.012,-0.02
13736,-9.828,-0.053,1.853,-0.005,0.012,-0.02
13839,-9.831,-0.045,1.846,-0.005,0.012,-0.02
13942,-9.828,-0.055,1.851,-0.005,0.012,-0.02
14045,-9.833,-0.05,1.846,-0.004,0.012,-0.02
14148,-9.838,-0.053,1.839,-0.005,0.012,-0.02
14251,-9.831,-0.05,1.844,-0.004,0.012,-0.02
14354,-9.831,-0.048,1.832,-0.004,0.013,-0.02
14457,-9.828,-0.057,1.844,-0.005,0.012,-0.02
14560,-9.833,-0.048,1.834,-0.004,0.012,-0.02
14663,-9.847,-0.057,1.846,-0.004,0.012,-0.02
14766,-9.831,-0.057,1.851,-0.005,0.012,-0.02
14869,-9.831,-0.048,1.851,-0.004,0.012,-0.02
14972,-9.847,-0.06,1.844,-0.005,0.012,-0.02
15075,-9.831,-0.048,1.844,-0.005,0.012,-0.02
15178,-9.835,-0.062,1.853,-0.004,0.012,-0.02
15281,-9.843,-0.057,1.844,-0.004,0.011,-0.019
15384,-9.838,-0.05,1.839,-0.005,0.012,-0.02
15487,-9.831,-0.053,1.829,-0.004,0.012,-0.02
15590,-9.835,-0.05,1.839,-0.005,0.012,-0.02
15693,-9.833,-0.053,1.844,-0.005,0.012,-0.02
15796,-9.838,-0.06,1.836,-0.005,0.012,-0.02
15899,-9.838,-0.053,1.848,-0.004,0.012,-0.02
16002,-9.833,-0.053,1.824,-0.005,0.012,-0.02
16105,-9.828,-0.06,1.844,-0.004,0.012,-0.02
16208,-9.831,-0.062,1.846,-0.005,0.012,-0.02
16311,-9.835,-0.053,1.846,-0.004,0.012,-0.02
16414,-9.835,-0.048,1.851,-0.004,0.012,-0.019
16517,-9.833,-0.05,1.834,-0.004,0.012,-0.02
16620,-9.85,-0.05,1.858,-0.005,0.012,-0.02
16723,-9.833,-0.05,1.827,-0.004,0.012,-0.02
16826,-9.826,-0.038,1.832,-0.005,0.012,-0.02
16929,-9.828,-0.041,1.86,-0.004,0.012,-0.02
17032,-9.838,-0.053,1.858,-0.005,0.013,-0.02
17135,-9.823,-0.05,1.836,-0.005,0.012,-0.02
17238,-9.826,-0.045,1.836,-0.004,0.012,-0.02
17341,-9.828,-0.05,1.839,-0.004,0.012,-0.02
17444,-9.828,-0.048,1.851,-0.005,0.011,-0.02
17547,-9.835,-0.053,1.846,-0.004,0.012,-0.02
17650,-9.826,-0.062,1.829,-0.004,0.012,-0.02
17753,-9.826,-0.048,1.836,-0.005,0.012,-0.02
17856,-9.843,-0.055,1.851,-0.005,0.012,-0.02
17959,-9.826,-0.053,1.832,-0.005,0.012,-0.02
18062,-9.838,-0.06,1.836,-0.005,0.011,-0.02
18165,-9.838,-0.055,1.834,-0.004,0.012,-0.02
18268,-9.838,-0.057,1.841,-0.005,0.011,-0.019
18371,-9.833,-0.065,1.832,-0.004,0.012,-0.02
18474,-9.831,-0.053,1.841,-0.005,0.011,-0.02
18577,-9.835,-0.048,1.846,-0.004,0.012,-0.02
18680,-9.833,-0.05,1.846,-0.004,0.011,-0.02
18783,-9.84,-0.06,1.829,-0.004,0.012,-0.021
18886,-9.831,-0.048,1.851,-0.005,0.012,-0.019
18989,-9.819,-0.053,1.848,-0.004,0.012,-0.019
19092,-9.833,-0.05,1.87,-0.005,0.011,-0.02
19195,-9.831,-0.045,1.839,-0.004,0.013,-0.019
19298,-9.84,-0.057,1.834,-0.004,0.012,-0.02
19401,-9.828,-0.045,1.832,-0.005,0.012,-0.02
19504,-9.826,-0.045,1.841,-0.005,0.012,-0.02
19607,-9.838,-0.057,1.848,-0.005,0.013,-0.02
19710,-9.845,-0.055,1.841,-0.005,0.012,-0.02
19813,-9.838,-0.048,1.841,-0.004,0.012,-0.02
19916,-9.833,-0.06,1.846,-0.005,0.012,-0.02
20019,-9.831,-0.055,1.846,-0.005,0.012,-0.02
20122,-9.833,-0.043,1.844,-0.004,0.012,-0.02
20225,-9.831,-0.053,1.829,-0.004,0.012,-0.019
20328,-9.838,-0.055,1.848,-0.004,0.012,-0.02
20431,-9.828,-0.05,1.834,-0.004,0.012,-0.02
20534,-9.826,-0.057,1.848,-0.004,0.012,-0.02
20637,-9.835,-0.053,1.834,-0.004,0.012,-0.02
20740,-9.835,-0.06,1.846,-0.005,0.011,-0.02
20843,-9.838,-0.055,1.841,-0.005,0.012,-0.019
20946,-9.823,-0.06,1.829,-0.004,0.012,-0.02
21049,-9.831,-0.053,1.832,-0.004,0.012,-0.02
21152,-9.828,-0.055,1.846,-0.005,0.011,-0.02
21255,-9.831,-0.05,1.841,-0.004,0.012,-0.02
21358,-9.838,-0.057,1.841,-0.005,0.012,-0.019
21461,-9.835,-0.053,1.839,-0.004,0.012,-0.02
21564,-9.828,-0.045,1.827,-0.004,0.012,-0.02
21667,-9.833,-0.057,1.846,-0.004,0.012,-0.02
21770,-9.833,-0.045,1.822,-0.005,0.013,-0.02
21873,-9.833,-0.055,1.846,-0.004,0.012,-0.02
21976,-9.831,-0.053,1.848,-0.005,0.013,-0.02
22079,-9.828,-0.05,1.836,-0.005,0.012,-0.02
22182,-9.833,-0.053,1.836,-0.004,0.013,-0.02
22285,-9.843,-0.043,1.839,-0.004,0.012,-0.02
22388,-9.835,-0.057,1.832,-0.005,0.012,-0.02
22491,-9.833,-0.065,1.846,-0.005,0.012,-0.021
22594,-9.826,-0.06,1.841,-0.004,0.013,-0.019
22697,-9.828,-0.053,1.827,-0.005,0.012,-0.02
22800,-9.84,-0.057,1.824,-0.004,0.012,-0.02
22903,-9.831,-0.062,1.839,-0.004,0.012,-0.019
23006,-9.833,-0.05,1.839,-0.004,0.012,-0.02
23109,-9.833,-0.065,1.834,-0.004,0.012,-0.02
23212,-9.835,-0.048,1.832,-0.004,0.012,-0.02
23315,-9.833,-0.065,1.846,-0.005,0.012,-0.02
23418,-9.831,-0.053,1.839,-0.004,0.012,-0.02
23521,-9.838,-0.057,1.82,-0.005,0.012,-0.02
23624,-9.831,-0.065,1.827,-0.004,0.011,-0.02
23727,-9.831,-0.06,1.839,-0.004,0.012,-0.019
23830,-9.835,-0.057,1.839,-0.004,0.012,-0.02
23933,-9.838,-0.057,1.836,-0.005,0.012,-0.02
24036,-9.84,-0.055,1.863,-0.005,0.012,-0.019
24139,-9.823,-0.057,1.822,-0.004,0.012,-0.02
24242,-9.84,-0.06,1.848,-0.004,0.011,-0.02
24345,-9.826,-0.045,1.841,-0.004,0.012,-0.02
24448,-9.826,-0.06,1.834,-0.005,0.012,-0.02
24551,-9.831,-0.057,1.841,-0.005,0.012,-0.019
24654,-9.823,-0.045,1.853,-0.004,0.012,-0.02
24757,-9.819,-0.041,1.836,-0.005,0.012,-0.02
24860,-9.838,-0.055,1.829,-0.005,0.012,-0.02
24963,-9.838,-0.048,1.829,-0.005,0.011,-0.02
25066,-9.833,-0.05,1.851,-0.005,0.012,-0.019
25169,-9.835,-0.05,1.846,-0.004,0.012,-0.02
25272,-9.843,-0.06,1.834,-0.005,0.012,-0.02
25375,-9.826,-0.05,1.841,-0.005,0.012,-0.02
25478,-9.828,-0.055,1.846,-0.004,0.012,-0.02
25581,-9.833,-0.057,1.858,-0.004,0.012,-0.019
25684,-9.826,-0.053,1.824,-0.005,0.012,-0.02
25787,-9.826,-0.06,1.846,-0.004,0.012,-0.02
25890,-9.831,-0.05,1.836,-0.005,0.011,-0.02
25993,-9.828,-0.06,1.829,-0.005,0.012,-0.02
26096,-9.831,-0.045,1.841,-0.005,0.012,-0.02
26199,-9.826,-0.055,1.832,-0.004,0.012,-0.02
26302,-9.828,-0.05,1.834,-0.005,0.011,-0.02
26405,-9.833,-0.062,1.834,-0.005,0.012,-0.02
26508,-9.838,-0.062,1.836,-0.005,0.012,-0.019
26611,-9.833,-0.057,1.829,-0.005,0.011,-0.02
26714,-9.833,-0.057,1.827,-0.005,0.011,-0.02
26817,-9.835,-0.057,1.834,-0.005,0.012,-0.02
26920,-9.828,-0.053,1.824,-0.004,0.012,-0.02
27023,-9.838,-0.062,1.841,-0.004,0.012,-0.02
27126,-9.826,-0.055,1.834,-0.004,0.012,-0.02
27229,-9.826,-0.057,1.836,-0.004,0.012,-0.019
27332,-9.833,-0.062,1.827,-0.005,0.012,-0.02
27435,-9.826,-0.048,1.848,-0.005,0.012,-0.02
27538,-9.828,-0.053,1.822,-0.004,0.012,-0.02
27641,-9.826,-0.06,1.824,-0.004,0.012,-0.02
27744,-9.823,-0.055,1.846,-0.005,0.012,-0.02
27847,-9.838,-0.055,1.853,-0.005,0.011,-0.02
27950,-9.835,-0.065,1.839,-0.004,0.011,-0.019
28053,-9.831,-0.06,1.848,-0.004,0.012,-0.02
28156,-9.84,-0.065,1.851,-0.004,0.012,-0.02
28259,-9.831,-0.057,1.848,-0.004,0.012,-0.02
28362,-9.84,-0.055,1.836,-0.005,0.012,-0.02
28465,-9.826,-0.057,1.839,-0.004,0.012,-0.02
28568,-9.826,-0.055,1.832,-0.005,0.011,-0.02
28671,-9.835,-0.045,1.844,-0.004,0.012,-0.02
28774,-9.823,-0.048,1.846,-0.005,0.012,-0.02
28877,-9.835,-0.062,1.836,-0.005,0.012,-0.02
28980,-9.831,-0.053,1.834,-0.005,0.012,-0.02
29083,-9.826,-0.048,1.832,-0.005,0.012,-0.02
29186,-9.828,-0.055,1.822,-0.005,0.013,-0.019
29289,-9.831,-0.06,1.844,-0.005,0.012,-0.02
29392,-9.843,-0.053,1.836,-0.005,0.012,-0.02
29495,-9.831,-0.048,1.822,-0.004,0.012,-0.019
29598,-9.821,-0.053,1.846,-0.005,0.012,-0.019
29701,-9.828,-0.055,1.851,-0.004,0.011,-0.02
29804,-9.821,-0.055,1.832,-0.005,0.012,-0.02
29907,-9.835,-0.055,1.832,-0.005,0.012,-0.02
30010,-9.833,-0.062,1.827,-0.005,0.012,-0.02
30113,-9.826,-0.048,1.832,-0.005,0.012,-0.02
30216,-9.828,-0.053,1.832,-0.005,0.012,-0.02
30319,-9.835,-0.06,1.832,-0.005,0.012,-0.02
30422,-9.835,-0.053,1.839,-0.005,0.012,-0.019
30525,-9.84,-0.057,1.844,-0.005,0.012,-0.02
30628,-9.828,-0.055,1.846,-0.004,0.012,-0.02
30731,-9.831,-0.057,1.834,-0.004,0.012,-0.02
30834,-9.835,-0.053,1.846,-0.005,0.011,-0.02
30937,-9.823,-0.06,1.836,-0.005,0.012,-0.02
31040,-9.838,-0.055,1.834,-0.004,0.012,-0.019
31143,-9.835,-0.045,1.824,-0.005,0.012,-0.02
31246,-9.838,-0.084,1.793,-0.004,0.012,-0.02
31349,-9.823,-0.043,1.832,-0.005,0.013,-0.02
31452,-9.826,-0.053,1.829,-0.005,0.012,-0.02
31555,-9.835,-0.06,1.827,-0.005,0.012,-0.02
31658,-9.828,-0.055,1.834,-0.005,0.011,-0.02
31761,-9.833,-0.055,1.832,-0.005,0.011,-0.02
31864,-9.833,-0.045,1.844,-0.004,0.012,-0.02
31967,-9.833,-0.057,1.844,-0.005,0.012,-0.02
32070,-9.84,-0.06,1.832,-0.005,0.012,-0.02
32173,-9.831,-0.065,1.834,-0.005,0.012,-0.02
32276,-9.835,-0.048,1.846,-0.005,0.013,-0.019
32379,-9.833,-0.05,1.841,-0.005,0.012,-0.02
32482,-9.826,-0.053,1.841,-0.005,0.011,-0.02
32585,-9.831,-0.06,1.832,-0.005,0.011,-0.02
32688,-9.826,-0.057,1.832,-0.005,0.012,-0.02
32791,-9.833,-0.057,1.848,-0.004,0.012,-0.02
32894,-9.835,-0.055,1.834,-0.005,0.012,-0.019
32997,-9.84,-0.057,1.839,-0.004,0.011,-0.02
33100,-9.833,-0.053,1.848,-0.004,0.012,-0.02
33203,-9.835,-0.069,1.844,-0.004,0.011,-0.021
33306,-9.843,-0.057,1.839,-0.004,0.014,-0.018
33409,-9.814,-0.038,1.827,-0.004,0.011,-0.021
33512,-9.843,-0.05,1.856,-0.005,0.012,-0.02
33615,-9.828,-0.045,1.817,-0.005,0.012,-0.02
33718,-9.831,-0.057,1.836,-0.005,0.012,-0.02
33821,-9.835,-0.062,1.829,-0.005,0.012,-0.02
33924,-9.833,-0.045,1.82,-0.005,0.012,-0.02
34027,-9.833,-0.053,1.832,-0.004,0.011,-0.02
34130,-9.828,-0.06,1.841,-0.005,0.011,-0.02
34233,-9.833,-0.057,1.827,-0.005,0.011,-0.02
34336,-9.835,-0.045,1.817,-0.005,0.012,-0.02
34439,-9.826,-0.062,1.848,-0.005,0.012,-0.02
34542,-9.831,-0.057,1.836,-0.005,0.011,-0.02
34645,-9.821,-0.045,1.841,-0.005,0.012,-0.02
34748,-9.821,-0.057,1.829,-0.004,0.011,-0.02
34851,-9.833,-0.053,1.848,-0.005,0.012,-0.02
34954,-9.831,-0.06,1.834,-0.005,0.012,-0.02
35057,-9.838,-0.06,1.834,-0.004,0.012,-0.02
35160,-9.838,-0.06,1.844,-0.005,0.012,-0.019
35263,-9.84,-0.06,1.836,-0.005,0.012,-0.02
35366,-9.838,-0.053,1.832,-0.005,0.012,-0.021
35469,-9.84,-0.062,1.824,-0.005,0.011,-0.02
35572,-9.828,-0.05,1.844,-0.004,0.012,-0.02
35675,-9.826,-0.053,1.832,-0.005,0.012,-0.02
35778,-9.826,-0.065,1.824,-0.005,0.012,-0.02
35881,-9.833,-0.06,1.834,-0.004,0.012,-0.02
35984,-9.826,-0.048,1.827,-0.005,0.012,-0.02
36087,-9.831,-0.057,1.839,-0.004,0.012,-0.02
36190,-9.84,-0.055,1.81,-0.004,0.013,-0.019
36293,-9.823,-0.055,1.851,-0.005,0.01,-0.021
36396,-9.835,-0.055,1.832,-0.004,0.012,-0.02
36499,-9.835,-0.05,1.853,-0.005,0.012,-0.02
36602,-9.835,-0.043,1.834,-0.005,0.011,-0.02
36705,-9.821,-0.053,1.836,-0.005,0.012,-0.02
36808,-9.84,-0.065,1.829,-0.005,0.012,-0.02
36911,-9.828,-0.05,1.836,-0.005,0.011,-0.02
37014,-9.828,-0.057,1.836,-0.005,0.012,-0.021
37117,-9.831,-0.048,1.832,-0.004,0.012,-0.02
37220,-9.828,-0.062,1.817,-0.005,0.012,-0.02
37323,-9.831,-0.045,1.836,-0.005,0.012,-0.02
37426,-9.843,-0.05,1.834,-0.005,0.012,-0.02
37529,-9.831,-0.06,1.836,-0.005,0.012,-0.019
37632,-9.845,-0.06,1.834,-0.005,0.012,-0.02
37735,-9.828,-0.055,1.829,-0.005,0.012,-0.021
37838,-9.826,-0.05,1.82,-0.005,0.012,-0.02
37941,-9.831,-0.062,1.834,-0.004,0.012,-0.019
38044,-9.84,-0.062,1.817,-0.004,0.012,-0.02
38147,-9.84,-0.053,1.827,-0.004,0.012,-0.02
38250,-9.835,-0.05,1.844,-0.004,0.012,-0.021
38353,-9.828,-0.055,1.848,-0.005,0.012,-0.02
38456,-9.835,-0.06,1.829,-0.005,0.012,-0.02
38559,-9.838,-0.057,1.832,-0.005,0.013,-0.02
38662,-9.828,-0.055,1.829,-0.005,0.012,-0.02
38765,-9.831,-0.06,1.832,-0.005,0.012,-0.02
38868,-9.843,-0.06,1.836,-0.004,0.013,-0.02
38971,-9.835,-0.048,1.846,-0.005,0.012,-0.02
39074,-9.831,-0.05,1.834,-0.005,0.011,-0.02
39177,-9.838,-0.053,1.836,-0.004,0.012,-0.02
39280,-9.833,-0.053,1.846,-0.005,0.012,-0.02
39383,-9.835,-0.062,1.832,-0.004,0.012,-0.019
39486,-9.828,-0.053,1.836,-0.005,0.012,-0.019
39589,-9.831,-0.048,1.844,-0.005,0.012,-0.02
39692,-9.84,-0.057,1.836,-0.004,0.012,-0.02
39795,-9.843,-0.065,1.844,-0.005,0.012,-0.02
39898,-9.833,-0.055,1.829,-0.004,0.012,-0.02
40001,-9.831,-0.062,1.834,-0.005,0.012,-0.02
40104,-9.826,-0.055,1.841,-0.005,0.012,-0.019
40207,-9.826,-0.048,1.822,-0.005,0.012,-0.02
40310,-9.838,-0.055,1.834,-0.004,0.012,-0.02
40413,-9.835,-0.057,1.827,-0.004,0.012,-0.02
40516,-9.835,-0.05,1.827,-0.005,0.011,-0.02
40619,-9.831,-0.057,1.836,-0.005,0.012,-0.02
40722,-9.828,-0.06,1.836,-0.005,0.012,-0.02
40825,-9.821,-0.05,1.824,-0.004,0.012,-0.019
40928,-9.826,-0.06,1.832,-0.005,0.012,-0.02
41031,-9.831,-0.053,1.836,-0.005,0.012,-0.019
41134,-9.819,-0.067,1.841,-0.005,0.012,-0.02
41237,-9.835,-0.06,1.853,-0.005,0.012,-0.02
41340,-9.838,-0.053,1.836,-0.005,0.012,-0.02
41443,-9.831,-0.053,1.834,-0.005,0.011,-0.02
41546,-9.838,-0.05,1.846,-0.005,0.013,-0.02
41649,-9.828,-0.048,1.856,-0.005,0.012,-0.02
41752,-9.835,-0.055,1.836,-0.005,0.012,-0.02
41855,-9.833,-0.041,1.834,-0.004,0.012,-0.019
41958,-9.826,-0.05,1.844,-0.005,0.012,-0.02
42061,-9.831,-0.05,1.832,-0.005,0.012,-0.02
42164,-9.823,-0.055,1.848,-0.005,0.012,-0.019
42267,-9.835,-0.06,1.832,-0.005,0.012,-0.02
42370,-9.821,-0.05,1.832,-0.005,0.011,-0.021
42473,-9.84,-0.067,1.851,-0.005,0.011,-0.021
42576,-9.828,-0.055,1.844,-0.005,0.012,-0.02
42679,-9.821,-0.041,1.851,-0.005,0.011,-0.021
42782,-9.838,-0.065,1.844,-0.005,0.012,-0.02
42885,-9.833,-0.053,1.841,-0.005,0.012,-0.019
42988,-9.823,-0.055,1.848,-0.005,0.013,-0.02
43091,-9.828,-0.045,1.839,-0.005,0.012,-0.02
43194,-9.84,-0.055,1.829,-0.005,0.013,-0.019
43297,-9.826,-0.06,1.836,-0.005,0.011,-0.02
43400,-9.835,-0.062,1.851,-0.005,0.012,-0.02
43503,-9.831,-0.062,1.846,-0.005,0.011,-0.02
43606,-9.809,-0.026,1.829,-0.005,0.011,-0.02
43709,-9.826,-0.048,1.872,-0.004,0.011,-0.021
43812,-9.835,-0.055,1.822,-0.005,0.013,-0.02
43915,-9.833,-0.057,1.836,-0.005,0.012,-0.021
44018,-9.823,-0.053,1.832,-0.005,0.012,-0.019
44121,-9.835,-0.062,1.824,-0.005,0.012,-0.02
44224,-9.821,-0.067,1.846,-0.005,0.012,-0.019
44327,-9.831,-0.048,1.832,-0.005,0.012,-0.02
44430,-9.831,-0.043,1.839,-0.005,0.012,-0.019
44533,-9.833,-0.045,1.841,-0.005,0.012,-0.02
44636,-9.833,-0.057,1.846,-0.005,0.011,-0.02
44739,-9.835,-0.053,1.834,-0.005,0.012,-0.02
44842,-9.828,-0.055,1.824,-0.005,0.012,-0.02
44945,-9.835,-0.055,1.853,-0.005,0.012,-0.02
45048,-9.838,-0.06,1.822,-0.005,0.012,-0.02
45151,-9.833,-0.055,1.824,-0.005,0.012,-0.02
45254,-9.821,-0.048,1.839,-0.005,0.012,-0.019
45357,-9.828,-0.053,1.827,-0.005,0.012,-0.021
45460,-9.845,-0.057,1.839,-0.005,0.012,-0.02
45563,-9.835,-0.06,1.832,-0.005,0.012,-0.02
45666,-9.828,-0.05,1.836,-0.005,0.012,-0.02
45769,-9.84,-0.065,1.836,-0.005,0.011,-0.02
45872,-9.823,-0.067,1.846,-0.005,0.012,-0.02
45975,-9.843,-0.06,1.846,-0.005,0.012,-0.02
46078,-9.831,-0.062,1.839,-0.004,0.012,-0.02
46181,-9.835,-0.055,1.827,-0.004,0.013,-0.019
46284,-9.843,-0.055,1.846,-0.005,0.01,-0.021
46387,-9.823,-0.055,1.82,-0.004,0.014,-0.019
46490,-9.838,-0.065,1.839,-0.004,0.012,-0.02
46593,-9.833,-0.062,1.824,-0.005,0.012,-0.019
46696,-9.823,-0.05,1.832,-0.005,0.012,-0.02
46799,-9.831,-0.057,1.832,-0.005,0.012,-0.019
46902,-9.831,-0.069,1.834,-0.005,0.012,-0.02
47005,-9.823,-0.062,1.834,-0.005,0.012,-0.019
47108,-9.838,-0.053,1.834,-0.005,0.012,-0.02
47211,-9.821,-0.053,1.827,-0.005,0.012,-0.02
47314,-9.84,-0.05,1.836,-0.005,0.012,-0.02
47417,-9.838,-0.062,1.848,-0.005,0.013,-0.021
47520,-9.833,-0.057,1.836,-0.005,0.012,-0.02
47623,-9.833,-0.065,1.834,-0.005,0.011,-0.02
47726,-9.835,-0.055,1.841,-0.005,0.012,-0.02
47829,-9.828,-0.06,1.844,-0.005,0.012,-0.02
47932,-9.826,-0.065,1.824,-0.005,0.012,-0.019
48035,-9.828,-0.055,1.841,-0.005,0.011,-0.02
48138,-9.823,-0.057,1.832,-0.004,0.012,-0.02
48241,-9.838,-0.053,1.829,-0.005,0.011,-0.02
48344,-9.833,-0.053,1.836,-0.005,0.013,-0.019
48447,-9.838,-0.06,1.836,-0.005,0.012,-0.02
48550,-9.823,-0.053,1.829,-0.005,0.012,-0.02
48653,-9.819,-0.057,1.839,-0.004,0.012,-0.019
48756,-9.835,-0.048,1.832,-0.005,0.012,-0.02
48859,-9.833,-0.053,1.836,-0.005,0.012,-0.019
48962,-9.826,-0.06,1.839,-0.005,0.012,-0.02
49065,-9.833,-0.057,1.827,-0.005,0.012,-0.02
49168,-9.833,-0.05,1.827,-0.005,0.012,-0.02
49271,-9.835,-0.055,1.846,-0.005,0.012,-0.02
49374,-9.828,-0.043,1.832,-0.005,0.012,-0.02
49477,-9.828,-0.053,1.851,-0.005,0.012,-0.02
49580,-9.833,-0.057,1.841,-0.005,0.012,-0.02
49683,-9.833,-0.053,1.844,-0.004,0.013,-0.02
49786,-9.833,-0.057,1.844,-0.004,0.012,-0.02
49889,-9.835,-0.053,1.844,-0.005,0.012,-0.02
49992,-9.843,-0.05,1.839,-0.005,0.012,-0.021
50095,-9.823,-0.053,1.841,-0.005,0.012,-0.02
50198,-9.826,-0.062,1.839,-0.005,0.011,-0.02
50301,-9.833,-0.055,1.853,-0.005,0.011,-0.02
50404,-9.84,-0.053,1.836,-0.004,0.012,-0.02
50507,-9.833,-0.06,1.836,-0.005,0.012,-0.02
50610,-9.828,-0.05,1.836,-0.005,0.012,-0.02
50713,-9.821,-0.045,1.834,-0.005,0.012,-0.019
50816,-9.84,-0.057,1.834,-0.004,0.012,-0.02
50919,-9.838,-0.053,1.832,-0.005,0.011,-0.019
51022,-9.833,-0.05,1.836,-0.005,0.012,-0.02
51125,-9.84,-0.048,1.832,-0.005,0.012,-0.02
51228,-9.831,-0.065,1.832,-0.005,0.012,-0.02
51331,-9.833,-0.065,1.827,-0.005,0.012,-0.02
51434,-9.826,-0.055,1.848,-0.005,0.012,-0.02
51537,-9.828,-0.057,1.832,-0.005,0.012,-0.02
51640,-9.823,-0.06,1.839,-0.005,0.012,-0.02
51743,-9.826,-0.053,1.812,-0.005,0.011,-0.02
51846,-9.833,-0.053,1.829,-0.005,0.011,-0.02
51949,-9.831,-0.057,1.834,-0.005,0.012,-0.02
52052,-9.833,-0.045,1.815,-0.005,0.011,-0.02
52155,-9.828,-0.06,1.829,-0.005,0.012,-0.02
52258,-9.833,-0.06,1.829,-0.005,0.012,-0.02
52361,-9.831,-0.06,1.822,-0.005,0.012,-0.02
52464,-9.826,-0.048,1.832,-0.005,0.012,-0.02
52567,-9.828,-0.048,1.841,-0.005,0.012,-0.02
52670,-9.826,-0.062,1.832,-0.004,0.012,-0.02
52773,-9.828,-0.05,1.817,-0.005,0.011,-0.02
52876,-9.835,-0.06,1.844,-0.004,0.012,-0.02
52979,-9.828,-0.06,1.834,-0.005,0.012,-0.02
53082,-9.826,-0.048,1.827,-0.005,0.012,-0.02
53185,-9.823,-0.045,1.832,-0.005,0.012,-0.02
53288,-9.826,-0.055,1.844,-0.005,0.012,-0.02
53391,-9.823,-0.065,1.829,-0.005,0.012,-0.02
53494,-9.826,-0.045,1.817,-0.005,0.012,-0.02
53597,-9.833,-0.048,1.839,-0.005,0.013,-0.02
53700,-9.828,-0.057,1.812,-0.004,0.012,-0.02
53803,-9.821,-0.06,1.844,-0.005,0.012,-0.019
53906,-9.826,-0.06,1.836,-0.005,0.012,-0.02
54009,-9.838,-0.057,1.844,-0.005,0.012,-0.02
54112,-9.828,-0.05,1.836,-0.004,0.011,-0.02
54215,-9.826,-0.055,1.824,-0.005,0.012,-0.02
54318,-9.828,-0.06,1.827,-0.005,0.012,-0.02
54421,-9.835,-0.067,1.841,-0.005,0.012,-0.02
54524,-9.831,-0.045,1.832,-0.005,0.012,-0.02
54627,-9.828,-0.055,1.844,-0.005,0.012,-0.02
54730,-9.833,-0.048,1.832,-0.005,0.012,-0.02
54833,-9.833,-0.055,1.827,-0.005,0.011,-0.02
54936,-9.845,-0.057,1.827,-0.005,0.011,-0.02
55039,-9.831,-0.055,1.844,-0.005,0.012,-0.02
55142,-9.828,-0.048,1.836,-0.005,0.012,-0.02
55245,-9.831,-0.055,1.851,-0.005,0.012,-0.02
55348,-9.833,-0.041,1.848,-0.005,0.012,-0.02
55451,-9.833,-0.057,1.836,-0.005,0.012,-0.02
55554,-9.831,-0.053,1.839,-0.005,0.012,-0.021
55657,-9.835,-0.043,1.834,-0.005,0.012,-0.02
55760,-9.831,-0.053,1.851,-0.005,0.011,-0.02
55863,-9.831,-0.05,1.817,-0.005,0.013,-0.02
55966,-9.831,-0.057,1.848,-0.005,0.012,-0.02
56069,-9.833,-0.057,1.839,-0.005,0.012,-0.019
56172,-9.828,-0.057,1.836,-0.004,0.012,-0.019
56275,-9.828,-0.048,1.834,-0.005,0.012,-0.02
56378,-9.821,-0.06,1.836,-0.005,0.012,-0.02
56481,-9.833,-0.05,1.829,-0.004,0.012,-0.02
56584,-9.833,-0.06,1.829,-0.005,0.012,-0.019
56687,-9.835,-0.05,1.829,-0.004,0.012,-0.02
56790,-9.814,-0.053,1.832,-0.005,0.011,-0.02
56893,-9.821,-0.053,1.836,-0.005,0.012,-0.02
56996,-9.826,-0.055,1.834,-0.004,0.012,-0.02
57099,-9.831,-0.048,1.846,-0.005,0.011,-0.02
57202,-9.833,-0.062,1.836,-0.004,0.012,-0.02
57305,-9.835,-0.055,1.824,-0.004,0.012,-0.02
57408,-9.838,-0.05,1.822,-0.005,0.013,-0.02
57511,-9.826,-0.057,1.836,-0.005,0.012,-0.02
57614,-9.833,-0.055,1.834,-0.005,0.012,-0.019
57717,-9.823,-0.06,1.822,-0.005,0.012,-0.02
57820,-9.826,-0.055,1.829,-0.005,0.012,-0.02
57923,-9.821,-0.053,1.839,-0.005,0.012,-0.02
58026,-9.823,-0.053,1.832,-0.005,0.011,-0.02
58129,-9.833,-0.055,1.834,-0.005,0.012,-0.02
58232,-9.821,-0.065,1.827,-0.005,0.012,-0.02
58335,-9.831,-0.067,1.824,-0.005,0.012,-0.02
58438,-9.838,-0.055,1.834,-0.004,0.012,-0.02
58541,-9.823,-0.05,1.841,-0.005,0.012,-0.02
58644,-9.84,-0.048,1.834,-0.005,0.012,-0.02
58747,-9.831,-0.055,1.832,-0.005,0.011,-0.02
58850,-9.835,-0.05,1.832,-0.005,0.012,-0.02
58953,-9.833,-0.057,1.839,-0.005,0.012,-0.02
59056,-9.835,-0.06,1.824,-0.005,0.011,-0.02
59159,-9.828,-0.06,1.822,-0.005,0.012,-0.021
59262,-9.823,-0.055,1.839,-0.005,0.012,-0.02
59365,-9.835,-0.057,1.827,-0.005,0.012,-0.02
59468,-9.826,-0.053,1.834,-0.005,0.012,-0.02
59571,-9.821,-0.053,1.846,-0.005,0.011,-0.02
59674,-9.826,-0.055,1.834,-0.005,0.012,-0.02
59777,-9.833,-0.045,1.832,-0.004,0.011,-0.02
59880,-9.845,-0.057,1.836,-0.005,0.012,-0.02
59983,-9.828,-0.048,1.841,-0.004,0.012,-0.02
60086,-9.835,-0.055,1.834,-0.005,0.012,-0.02
60189,-9.838,-0.062,1.832,-0.005,0.012,-0.02
60292,-9.828,-0.055,1.839,-0.004,0.012,-0.02
60395,-9.826,-0.057,1.829,-0.004,0.012,-0.02
60498,-9.835,-0.053,1.827,-0.004,0.012,-0.019
60601,-9.831,-0.053,1.836,-0.005,0.012,-0.019
60704,-9.828,-0.053,1.82,-0.004,0.011,-0.02
60807,-9.833,-0.057,1.839,-0.005,0.011,-0.02
60910,-9.831,-0.055,1.829,-0.005,0.012,-0.02
61013,-9.821,-0.045,1.827,-0.005,0.012,-0.02
61116,-9.833,-0.06,1.827,-0.005,0.012,-0.02
61219,-9.833,-0.055,1.836,-0.004,0.012,-0.02
61322,-9.828,-0.065,1.829,-0.005,0.012,-0.02
61425,-9.826,-0.06,1.846,-0.005,0.012,-0.02
61528,-9.828,-0.057,1.832,-0.005,0.012,-0.02
61631,-9.831,-0.06,1.839,-0.005,0.012,-0.02
61734,-9.833,-0.057,1.829,-0.005,0.012,-0.02
61837,-9.828,-0.05,1.844,-0.005,0.012,-0.02
61940,-9.828,-0.053,1.829,-0.005,0.012,-0.02
62043,-9.838,-0.05,1.829,-0.005,0.013,-0.019
62146,-9.831,-0.053,1.836,-0.005,0.012,-0.02
62249,-9.833,-0.043,1.834,-0.005,0.012,-0.02
62352,-9.833,-0.06,1.832,-0.005,0.012,-0.02
62455,-9.833,-0.055,1.836,-0.005,0.012,-0.02
62558,-9.831,-0.053,1.832,-0.005,0.012,-0.02
62661,-9.838,-0.062,1.827,-0.005,0.012,-0.02
62764,-9.833,-0.067,1.824,-0.005,0.011,-0.02
62867,-9.823,-0.062,1.829,-0.005,0.012,-0.02
62970,-9.838,-0.057,1.829,-0.005,0.012,-0.02
63073,-9.843,-0.055,1.836,-0.005,0.012,-0.02
63176,-9.823,-0.05,1.829,-0.005,0.012,-0.02
63279,-9.833,-0.045,1.839,-0.005,0.012,-0.02
63382,-9.828,-0.053,1.82,-0.005,0.012,-0.02
63485,-9.833,-0.057,1.848,-0.005,0.012,-0.02
63588,-9.828,-0.06,1.841,-0.004,0.012,-0.021
63691,-9.828,-0.057,1.839,-0.005,0.012,-0.02
63794,-9.835,-0.057,1.829,-0.005,0.012,-0.02
63897,-9.831,-0.06,1.827,-0.005,0.012,-0.02
64000,-9.828,-0.05,1.844,-0.004,0.011,-0.02
64103,-9.831,-0.053,1.839,-0.005,0.012,-0.02
64206,-9.823,-0.05,1.841,-0.005,0.012,-0.02
64309,-9.819,-0.053,1.832,-0.005,0.012,-0.02
64412,-9.833,-0.055,1.841,-0.005,0.012,-0.019
64515,-9.819,-0.05,1.846,-0.005,0.012,-0.02
64618,-9.835,-0.06,1.834,-0.005,0.012,-0.02
64721,-9.84,-0.057,1.832,-0.005,0.012,-0.02
64824,-9.831,-0.055,1.832,-0.005,0.012,-0.02
64927,-9.826,-0.057,1.839,-0.005,0.012,-0.02
65030,-9.828,-0.053,1.827,-0.005,0.012,-0.02
65133,-9.823,-0.05,1.824,-0.005,0.011,-0.02
65236,-9.823,-0.057,1.844,-0.004,0.012,-0.019
65339,-9.831,-0.05,1.829,-0.004,0.012,-0.02
65442,-9.828,-0.062,1.834,-0.005,0.012,-0.02
65545,-9.835,-0.055,1.829,-0.005,0.012,-0.02
65648,-9.828,-0.06,1.824,-0.005,0.012,-0.02
65751,-9.826,-0.053,1.829,-0.005,0.013,-0.02
65854,-9.828,-0.057,1.832,-0.005,0.012,-0.02
65957,-9.833,-0.065,1.832,-0.005,0.012,-0.02
66060,-9.833,-0.053,1.829,-0.005,0.012,-0.02
66163,-9.831,-0.05,1.834,-0.005,0.012,-0.02
66266,-9.828,-0.053,1.82,-0.004,0.012,-0.02
66369,-9.828,-0.043,1.829,-0.005,0.012,-0.02
66472,-9.833,-0.05,1.827,-0.005,0.011,-0.02
66575,-9.831,-0.053,1.839,-0.005,0.012,-0.02
66678,-9.831,-0.055,1.824,-0.005,0.011,-0.02
66781,-9.833,-0.067,1.827,-0.004,0.012,-0.02
66884,-9.84,-0.05,1.839,-0.005,0.012,-0.021
66987,-9.831,-0.057,1.827,-0.005,0.011,-0.02
67090,-9.831,-0.057,1.836,-0.004,0.011,-0.02
67193,-9.828,-0.05,1.824,-0.005,0.012,-0.02
67296,-9.831,-0.055,1.839,-0.005,0.012,-0.02
67399,-9.826,-0.06,1.829,-0.005,0.012,-0.019
67502,-9.823,-0.053,1.827,-0.005,0.011,-0.02
67605,-9.835,-0.062,1.832,-0.005,0.012,-0.02
67708,-9.838,-0.06,1.829,-0.005,0.012,-0.02
67811,-9.831,-0.05,1.829,-0.005,0.012,-0.02
67914,-9.838,-0.048,1.834,-0.004,0.012,-0.02
68017,-9.833,-0.053,1.836,-0.005,0.012,-0.02
68120,-9.826,-0.057,1.827,-0.005,0.012,-0.02
68223,-9.828,-0.055,1.841,-0.004,0.012,-0.02
68326,-9.826,-0.057,1.836,-0.005,0.012,-0.02
68429,-9.833,-0.045,1.834,-0.004,0.012,-0.019
68532,-9.828,-0.057,1.832,-0.005,0.012,-0.02
68635,-9.833,-0.055,1.836,-0.005,0.012,-0.02
68738,-9.831,-0.062,1.832,-0.005,0.012,-0.02
68841,-9.828,-0.053,1.829,-0.005,0.012,-0.02
68944,-9.828,-0.048,1.841,-0.005,0.012,-0.02
69047,-9.823,-0.06,1.832,-0.005,0.011,-0.02
69150,-9.833,-0.055,1.817,-0.005,0.011,-0.021
69253,-9.828,-0.053,1.824,-0.005,0.012,-0.02
69356,-9.838,-0.057,1.829,-0.004,0.012,-0.02
69459,-9.821,-0.05,1.834,-0.005,0.011,-0.02
69562,-9.828,-0.055,1.841,-0.005,0.012,-0.019
69665,-9.838,-0.053,1.817,-0.005,0.012,-0.02
69768,-9.823,-0.06,1.846,-0.005,0.012,-0.019
69871,-9.819,-0.055,1.836,-0.005,0.012,-0.021
69974,-9.838,-0.06,1.834,-0.005,0.012,-0.02
70077,-9.831,-0.057,1.827,-0.005,0.012,-0.02
70180,-9.828,-0.055,1.846,-0.005,0.013,-0.02
70283,-9.828,-0.053,1.839,-0.005,0.012,-0.02
70386,-9.831,-0.053,1.834,-0.005,0.012,-0.02
70489,-9.826,-0.062,1.832,-0.005,0.012,-0.02
70592,-9.826,-0.048,1.824,-0.005,0.012,-0.02
70695,-9.833,-0.065,1.827,-0.005,0.012,-0.019
70798,-9.831,-0.065,1.815,-0.005,0.012,-0.02
70901,-9.833,-0.057,1.824,-0.005,0.012,-0.02
71004,-9.826,-0.055,1.832,-0.005,0.012,-0.02
71107,-9.826,-0.048,1.836,-0.004,0.012,-0.02
71210,-9.826,-0.05,1.834,-0.004,0.012,-0.02
71313,-9.831,-0.067,1.82,-0.005,0.012,-0.02
71416,-9.84,-0.057,1.805,-0.004,0.012,-0.019
71519,-9.814,-0.041,1.791,-0.005,0.014,-0.02
71622,-9.821,-0.055,1.834,-0.005,0.01,-0.021
71725,-9.828,-0.062,1.832,-0.005,0.013,-0.019
71828,-9.821,-0.057,1.841,-0.005,0.011,-0.021
71931,-9.823,-0.048,1.834,-0.005,0.013,-0.019
72034,-9.838,-0.048,1.829,-0.005,0.012,-0.02
72137,-9.821,-0.041,1.832,-0.005,0.013,-0.02
72240,-9.831,-0.048,1.805,-0.006,0.011,-0.02
72343,-9.833,-0.05,1.863,-0.005,0.012,-0.019
72446,-9.831,-0.038,1.824,-0.006,0.012,-0.021
72549,-9.821,-0.041,1.829,-0.005,0.012,-0.019
72652,-9.833,-0.057,1.839,-0.005,0.011,-0.02
72755,-9.826,-0.05,1.834,-0.005,0.013,-0.02
72858,-9.835,-0.06,1.827,-0.005,0.012,-0.02
72961,-9.826,-0.055,1.817,-0.005,0.012,-0.02
73064,-9.838,-0.055,1.832,-0.005,0.012,-0.02
73167,-9.828,-0.057,1.829,-0.005,0.013,-0.02
73270,-9.835,-0.06,1.824,-0.005,0.011,-0.02
73373,-9.831,-0.055,1.829,-0.005,0.012,-0.02
73476,-9.831,-0.06,1.841,-0.005,0.012,-0.02
73579,-9.819,-0.045,1.822,-0.004,0.011,-0.02
73682,-9.845,-0.062,1.832,-0.005,0.012,-0.02
73785,-9.835,-0.048,1.82,-0.005,0.011,-0.02
73888,-9.828,-0.062,1.832,-0.005,0.012,-0.02
73991,-9.833,-0.055,1.827,-0.005,0.012,-0.02
74094,-9.835,-0.055,1.82,-0.005,0.012,-0.02
74197,-9.831,-0.055,1.81,-0.005,0.013,-0.02
74300,-9.828,-0.055,1.841,-0.005,0.011,-0.021
74403,-9.835,-0.06,1.841,-0.005,0.012,-0.02
74506,-9.831,-0.053,1.824,-0.005,0.011,-0.02
74609,-9.819,-0.057,1.836,-0.005,0.012,-0.02
74712,-9.838,-0.062,1.836,-0.005,0.011,-0.02
74815,-9.828,-0.048,1.832,-0.005,0.012,-0.02
74918,-9.831,-0.06,1.836,-0.005,0.012,-0.02
75021,-9.831,-0.057,1.832,-0.005,0.012,-0.02
75124,-9.828,-0.057,1.815,-0.005,0.011,-0.019
75227,-9.838,-0.065,1.846,-0.005,0.011,-0.02
75330,-9.828,-0.053,1.81,-0.005,0.012,-0.02
75433,-9.84,-0.057,1.829,-0.005,0.012,-0.019
75536,-9.833,-0.055,1.832,-0.005,0.012,-0.02
75639,-9.833,-0.062,1.829,-0.005,0.012,-0.02
75742,-9.826,-0.057,1.824,-0.006,0.012,-0.02
75845,-9.843,-0.06,1.832,-0.005,0.012,-0.02
75948,-9.823,-0.055,1.817,-0.005,0.012,-0.02
76051,-9.828,-0.045,1.834,-0.005,0.012,-0.02
76154,-9.833,-0.06,1.832,-0.005,0.012,-0.021
76257,-9.833,-0.057,1.836,-0.005,0.012,-0.02
76360,-9.826,-0.055,1.822,-0.005,0.012,-0.02
76463,-9.828,-0.048,1.829,-0.005,0.012,-0.02
76566,-9.828,-0.053,1.827,-0.004,0.012,-0.02
76669,-9.826,-0.057,1.834,-0.005,0.012,-0.02
76772,-9.843,-0.06,1.834,-0.005,0.012,-0.02
76875,-9.831,-0.065,1.841,-0.005,0.012,-0.021
76978,-9.828,-0.06,1.841,-0.005,0.011,-0.02
77081,-9.828,-0.057,1.846,-0.005,0.012,-0.02
77184,-9.828,-0.06,1.824,-0.005,0.012,-0.02
77287,-9.838,-0.055,1.836,-0.005,0.012,-0.02
77390,-9.835,-0.057,1.82,-0.005,0.012,-0.02
77493,-9.835,-0.045,1.824,-0.005,0.012,-0.02
77596,-9.835,-0.057,1.841,-0.005,0.012,-0.02
77699,-9.833,-0.06,1.824,-0.005,0.012,-0.02
77802,-9.835,-0.062,1.822,-0.005,0.012,-0.02
77905,-9.838,-0.057,1.829,-0.005,0.012,-0.02
78008,-9.831,-0.055,1.82,-0.005,0.012,-0.02
78111,-9.828,-0.05,1.846,-0.005,0.012,-0.02
78214,-9.835,-0.06,1.829,-0.005,0.011,-0.02
78317,-9.831,-0.048,1.824,-0.005,0.012,-0.02
78420,-9.838,-0.05,1.824,-0.005,0.012,-0.02
78523,-9.833,-0.043,1.844,-0.005,0.012,-0.02
78626,-9.823,-0.057,1.841,-0.005,0.012,-0.02
78729,-9.838,-0.053,1.832,-0.005,0.012,-0.02
78832,-9.831,-0.05,1.824,-0.005,0.012,-0.02
78935,-9.838,-0.06,1.827,-0.005,0.012,-0.02
79038,-9.828,-0.055,1.836,-0.005,0.012,-0.02
79141,-9.831,-0.053,1.834,-0.005,0.011,-0.021
79244,-9.843,-0.048,1.839,-0.005,0.012,-0.02
79347,-9.835,-0.053,1.836,-0.005,0.012,-0.02
79450,-9.835,-0.057,1.839,-0.005,0.012,-0.02
79553,-9.835,-0.062,1.844,-0.005,0.012,-0.021
79656,-9.826,-0.053,1.841,-0.004,0.012,-0.02
79759,-9.833,-0.045,1.836,-0.005,0.012,-0.02
79862,-9.835,-0.048,1.829,-0.005,0.012,-0.02
79965,-9.833,-0.053,1.832,-0.006,0.012,-0.02
80068,-9.828,-0.05,1.827,-0.005,0.012,-0.02
80171,-9.826,-0.05,1.832,-0.005,0.012,-0.02
80274,-9.835,-0.048,1.839,-0.005,0.012,-0.019
80377,-9.835,-0.055,1.834,-0.005,0.012,-0.02
80480,-9.823,-0.055,1.827,-0.005,0.012,-0.02
80583,-9.826,-0.06,1.82,-0.005,0.012,-0.02
80686,-9.835,-0.06,1.839,-0.005,0.012,-0.02
80789,-9.826,-0.055,1.844,-0.005,0.012,-0.02
80892,-9.833,-0.048,1.82,-0.005,0.012,-0.02
80995,-9.833,-0.057,1.82,-0.005,0.012,-0.02
81098,-9.826,-0.05,1.827,-0.005,0.012,-0.02
81201,-9.843,-0.055,1.824,-0.005,0.012,-0.02
81304,-9.831,-0.057,1.836,-0.005,0.012,-0.02
81407,-9.835,-0.06,1.815,-0.004,0.012,-0.02
81510,-9.833,-0.05,1.82,-0.005,0.012,-0.02
81613,-9.828,-0.057,1.836,-0.005,0.012,-0.02
81716,-9.831,-0.041,1.841,-0.005,0.011,-0.02
81819,-9.84,-0.043,1.832,-0.005,0.012,-0.019
81922,-9.838,-0.055,1.832,-0.005,0.012,-0.021
82025,-9.838,-0.055,1.832,-0.005,0.012,-0.02
82128,-9.826,-0.053,1.817,-0.005,0.012,-0.02
82231,-9.833,-0.06,1.824,-0.005,0.012,-0.019
82334,-9.833,-0.055,1.817,-0.005,0.012,-0.02
82437,-9.826,-0.057,1.841,-0.005,0.012,-0.02
82540,-9.831,-0.048,1.832,-0.005,0.012,-0.02
82643,-9.833,-0.048,1.824,-0.005,0.012,-0.021
82746,-9.819,-0.062,1.812,-0.005,0.012,-0.021
82849,-9.823,-0.045,1.824,-0.005,0.012,-0.02
82952,-9.831,-0.055,1.829,-0.005,0.012,-0.02
83055,-9.84,-0.057,1.822,-0.005,0.012,-0.02
83158,-9.833,-0.045,1.827,-0.005,0.012,-0.02
83261,-9.84,-0.055,1.827,-0.005,0.012,-0.019
83364,-9.828,-0.053,1.832,-0.005,0.012,-0.021
83467,-9.835,-0.057,1.844,-0.005,0.012,-0.02
83570,-9.84,-0.053,1.827,-0.005,0.011,-0.02
83673,-9.84,-0.055,1.829,-0.005,0.011,-0.021
83776,-9.833,-0.057,1.824,-0.005,0.012,-0.02
83879,-9.828,-0.05,1.829,-0.005,0.012,-0.02
83982,-9.831,-0.053,1.822,-0.005,0.011,-0.02
84085,-9.833,-0.05,1.829,-0.005,0.012,-0.019
84188,-9.828,-0.05,1.822,-0.005,0.012,-0.02
84291,-9.833,-0.048,1.834,-0.005,0.013,-0.02
84394,-9.826,-0.043,1.827,-0.005,0.012,-0.02
84497,-9.835,-0.062,1.82,-0.005,0.012,-0.02
84600,-9.833,-0.053,1.829,-0.005,0.012,-0.02
84703,-9.828,-0.053,1.829,-0.004,0.012,-0.02
84806,-9.823,-0.057,1.834,-0.004,0.012,-0.02
84909,-9.816,-0.043,1.817,-0.004,0.013,-0.02
85012,-9.823,-0.053,1.817,-0.005,0.011,-0.02
85115,-9.828,-0.057,1.834,-0.005,0.012,-0.02
85218,-9.828,-0.048,1.822,-0.005,0.012,-0.02
85321,-9.828,-0.055,1.839,-0.005,0.011,-0.02
85424,-9.823,-0.057,1.829,-0.005,0.012,-0.02
85527,-9.838,-0.05,1.834,-0.005,0.012,-0.02
85630,-9.828,-0.055,1.822,-0.005,0.012,-0.02
85733,-9.838,-0.06,1.832,-0.005,0.012,-0.02
85836,-9.828,-0.057,1.822,-0.005,0.012,-0.02
85939,-9.831,-0.055,1.832,-0.005,0.012,-0.02
86042,-9.828,-0.05,1.836,-0.005,0.012,-0.02
86145,-9.833,-0.057,1.822,-0.004,0.012,-0.02
86248,-9.847,-0.057,1.834,-0.005,0.012,-0.02
86351,-9.843,-0.041,1.82,-0.005,0.012,-0.02
86454,-9.838,-0.05,1.817,-0.005,0.012,-0.02
86557,-9.838,-0.053,1.836,-0.005,0.012,-0.02
86660,-9.843,-0.06,1.832,-0.005,0.012,-0.02
86763,-9.831,-0.055,1.824,-0.005,0.012,-0.021
86866,-9.826,-0.06,1.812,-0.005,0.012,-0.02
86969,-9.831,-0.053,1.827,-0.005,0.012,-0.02
87072,-9.833,-0.055,1.827,-0.005,0.012,-0.02
87175,-9.838,-0.048,1.827,-0.005,0.012,-0.02
87278,-9.84,-0.048,1.834,-0.004,0.012,-0.019
87381,-9.833,-0.055,1.82,-0.005,0.012,-0.02
87484,-9.833,-0.05,1.82,-0.005,0.011,-0.02
87587,-9.826,-0.057,1.839,-0.005,0.012,-0.02
87690,-9.831,-0.055,1.836,-0.004,0.012,-0.02
87793,-9.826,-0.053,1.834,-0.005,0.012,-0.02
87896,-9.833,-0.053,1.836,-0.004,0.012,-0.02
87999,-9.833,-0.069,1.827,-0.005,0.012,-0.02
88102,-9.833,-0.043,1.841,-0.005,0.012,-0.02
88205,-9.823,-0.038,1.829,-0.005,0.012,-0.02
88308,-9.833,-0.05,1.834,-0.005,0.011,-0.02
88411,-9.831,-0.057,1.827,-0.004,0.011,-0.02
88514,-9.838,-0.053,1.832,-0.005,0.013,-0.02
88617,-9.838,-0.048,1.839,-0.005,0.013,-0.02
88720,-9.835,-0.05,1.846,-0.005,0.012,-0.021
88823,-9.838,-0.045,1.839,-0.005,0.012,-0.02
88926,-9.835,-0.045,1.817,-0.005,0.012,-0.02
89029,-9.833,-0.05,1.834,-0.004,0.012,-0.02
89132,-9.833,-0.053,1.827,-0.005,0.012,-0.02
89235,-9.833,-0.055,1.82,-0.005,0.012,-0.02
89338,-9.833,-0.05,1.82,-0.005,0.012,-0.02
89441,-9.84,-0.053,1.827,-0.005,0.012,-0.02
89544,-9.831,-0.065,1.829,-0.005,0.012,-0.02
89647,-9.828,-0.05,1.834,-0.005,0.012,-0.02
89750,-9.831,-0.045,1.832,-0.005,0.013,-0.02
89853,-9.821,-0.053,1.829,-0.005,0.011,-0.02
89956,-9.826,-0.06,1.834,-0.005,0.012,-0.021
90059,-9.831,-0.045,1.836,-0.005,0.012,-0.02
90162,-9.828,-0.05,1.824,-0.005,0.012,-0.02
90265,-9.831,-0.048,1.836,-0.005,0.012,-0.02
90368,-9.833,-0.05,1.824,-0.004,0.012,-0.02
90471,-9.833,-0.062,1.832,-0.005,0.012,-0.02
90574,-9.833,-0.06,1.822,-0.005,0.011,-0.02
90677,-9.84,-0.05,1.851,-0.004,0.012,-0.019
90780,-9.828,-0.048,1.827,-0.004,0.012,-0.02
90883,-9.833,-0.053,1.832,-0.005,0.012,-0.02
90986,-9.821,-0.065,1.834,-0.005,0.011,-0.019
91089,-9.826,-0.057,1.836,-0.005,0.011,-0.021
91192,-9.835,-0.053,1.839,-0.005,0.012,-0.02
91295,-9.831,-0.05,1.834,-0.005,0.012,-0.02
91398,-9.823,-0.048,1.841,-0.005,0.012,-0.021
91501,-9.828,-0.048,1.82,-0.005,0.012,-0.02
91604,-9.831,-0.055,1.832,-0.005,0.012,-0.02
91707,-9.828,-0.057,1.834,-0.005,0.012,-0.02
91810,-9.831,-0.057,1.827,-0.005,0.012,-0.02
91913,-9.838,-0.045,1.834,-0.004,0.012,-0.02
92016,-9.835,-0.048,1.839,-0.005,0.012,-0.021
92119,-9.833,-0.05,1.815,-0.005,0.012,-0.02
92222,-9.833,-0.055,1.836,-0.005,0.012,-0.02
92325,-9.833,-0.05,1.836,-0.004,0.012,-0.02
92428,-9.831,-0.057,1.827,-0.005,0.013,-0.02
92531,-9.84,-0.06,1.836,-0.005,0.012,-0.019
92634,-9.838,-0.055,1.836,-0.005,0.012,-0.019
92737,-9.833,-0.06,1.834,-0.005,0.012,-0.02
92840,-9.826,-0.053,1.827,-0.005,0.012,-0.02
92943,-9.828,-0.055,1.824,-0.005,0.012,-0.02
93046,-9.84,-0.062,1.841,-0.004,0.012,-0.02
93149,-9.838,-0.053,1.829,-0.005,0.013,-0.02
93252,-9.835,-0.05,1.827,-0.005,0.011,-0.02
93355,-9.835,-0.05,1.836,-0.005,0.012,-0.02
93458,-9.826,-0.057,1.829,-0.005,0.012,-0.019
93561,-9.835,-0.045,1.817,-0.005,0.011,-0.02
93664,-9.831,-0.055,1.836,-0.005,0.012,-0.02
93767,-9.84,-0.05,1.844,-0.005,0.011,-0.02
93870,-9.828,-0.06,1.832,-0.005,0.012,-0.02
93973,-9.831,-0.05,1.836,-0.005,0.011,-0.02
94076,-9.828,-0.057,1.846,-0.005,0.013,-0.019
94179,-9.835,-0.062,1.827,-0.005,0.012,-0.02
94282,-9.835,-0.055,1.822,-0.005,0.012,-0.02
94385,-9.835,-0.043,1.834,-0.005,0.012,-0.02
94488,-9.843,-0.062,1.836,-0.005,0.012,-0.02
94591,-9.831,-0.048,1.851,-0.005,0.012,-0.02
94694,-9.833,-0.057,1.851,-0.005,0.012,-0.02
94797,-9.838,-0.048,1.832,-0.005,0.012,-0.021
94900,-9.835,-0.06,1.824,-0.004,0.012,-0.02
95003,-9.833,-0.057,1.832,-0.005,0.011,-0.02
95106,-9.828,-0.057,1.817,-0.004,0.011,-0.02
95209,-9.835,-0.05,1.824,-0.005,0.012,-0.02
95312,-9.831,-0.065,1.834,-0.005,0.012,-0.019
95415,-9.831,-0.048,1.834,-0.005,0.012,-0.02
95518,-9.833,-0.06,1.82,-0.005,0.012,-0.02
95621,-9.831,-0.057,1.836,-0.005,0.012,-0.02
95724,-9.816,-0.067,1.836,-0.005,0.012,-0.02
95827,-9.838,-0.055,1.827,-0.005,0.012,-0.019
95930,-9.835,-0.057,1.82,-0.006,0.013,-0.021
96033,-9.835,-0.053,1.834,-0.005,0.012,-0.02
96136,-9.828,-0.05,1.827,-0.005,0.012,-0.021
96239,-9.823,-0.055,1.829,-0.005,0.012,-0.02
96342,-9.831,-0.055,1.834,-0.004,0.012,-0.02
96445,-9.821,-0.06,1.822,-0.004,0.012,-0.02
96548,-9.823,-0.041,1.812,-0.005,0.012,-0.02
96651,-9.831,-0.05,1.817,-0.005,0.012,-0.02
96754,-9.833,-0.055,1.832,-0.005,0.012,-0.019
96857,-9.833,-0.053,1.839,-0.005,0.012,-0.02
96960,-9.826,-0.055,1.834,-0.005,0.012,-0.02
97063,-9.823,-0.057,1.827,-0.005,0.012,-0.02
97166,-9.831,-0.055,1.824,-0.005,0.012,-0.021
97269,-9.835,-0.05,1.827,-0.005,0.012,-0.02
97372,-9.838,-0.057,1.827,-0.005,0.011,-0.02
97475,-9.838,-0.045,1.817,-0.004,0.012,-0.021
97578,-9.821,-0.055,1.839,-0.005,0.012,-0.02
97681,-9.828,-0.055,1.841,-0.004,0.012,-0.02
97784,-9.831,-0.053,1.822,-0.004,0.011,-0.02
97887,-9.835,-0.055,1.824,-0.005,0.012,-0.02
97990,-9.833,-0.048,1.829,-0.005,0.012,-0.02
98093,-9.835,-0.05,1.834,-0.005,0.012,-0.02
98196,-9.835,-0.057,1.827,-0.005,0.012,-0.02
98299,-9.831,-0.045,1.822,-0.005,0.012,-0.02
98402,-9.835,-0.062,1.817,-0.005,0.012,-0.02
98505,-9.828,-0.057,1.81,-0.005,0.012,-0.02
98608,-9.828,-0.062,1.817,-0.005,0.012,-0.02
98711,-9.828,-0.053,1.836,-0.005,0.012,-0.021
98814,-9.819,-0.057,1.836,-0.005,0.012,-0.02
98917,-9.828,-0.062,1.832,-0.005,0.012,-0.02
99020,-9.84,-0.048,1.822,-0.005,0.012,-0.02
99123,-9.833,-0.057,1.815,-0.005,0.012,-0.02
99226,-9.831,-0.048,1.824,-0.005,0.012,-0.02
99329,-9.831,-0.062,1.836,-0.005,0.012,-0.02
99432,-9.835,-0.062,1.834,-0.005,0.012,-0.02
99535,-9.831,-0.057,1.827,-0.005,0.012,-0.02
99638,-9.838,-0.06,1.829,-0.005,0.012,-0.021
99741,-9.826,-0.065,1.815,-0.005,0.012,-0.02
99844,-9.852,-0.05,1.82,-0.005,0.012,-0.02
99947,-9.826,-0.057,1.834,-0.005,0.012,-0.02
100050,-9.831,-0.055,1.827,-0.005,0.012,-0.02
100153,-9.835,-0.053,1.834,-0.005,0.012,-0.02
100256,-9.833,-0.041,1.832,-0.005,0.012,-0.02
100359,-9.826,-0.045,1.829,-0.005,0.012,-0.02
100462,-9.828,-0.053,1.827,-0.005,0.012,-0.02
100565,-9.828,-0.048,1.815,-0.005,0.012,-0.02
100668,-9.84,-0.055,1.827,-0.005,0.012,-0.02
100771,-9.821,-0.053,1.824,-0.005,0.011,-0.021
100874,-9.835,-0.053,1.822,-0.005,0.012,-0.02
100977,-9.84,-0.05,1.822,-0.004,0.012,-0.02
101080,-9.826,-0.045,1.82,-0.005,0.012,-0.02
101183,-9.835,-0.053,1.834,-0.005,0.012,-0.02
101286,-9.828,-0.057,1.822,-0.004,0.012,-0.02
101389,-9.835,-0.05,1.817,-0.005,0.012,-0.02
101492,-9.835,-0.045,1.817,-0.005,0.012,-0.02
101595,-9.831,-0.055,1.822,-0.005,0.012,-0.02
101698,-9.828,-0.05,1.812,-0.005,0.012,-0.02
101801,-9.833,-0.048,1.832,-0.005,0.012,-0.021
101904,-9.823,-0.055,1.829,-0.005,0.012,-0.019
102007,-9.838,-0.053,1.832,-0.005,0.012,-0.02
102110,-9.835,-0.05,1.836,-0.004,0.013,-0.02
102213,-9.835,-0.057,1.829,-0.005,0.011,-0.02
102316,-9.831,-0.053,1.82,-0.005,0.012,-0.02
102419,-9.831,-0.053,1.81,-0.005,0.013,-0.021
102522,-9.831,-0.055,1.836,-0.004,0.012,-0.02
102625,-9.835,-0.05,1.829,-0.005,0.012,-0.02
102728,-9.833,-0.057,1.815,-0.005,0.012,-0.02
102831,-9.831,-0.053,1.812,-0.005,0.012,-0.019
102934,-9.823,-0.055,1.829,-0.005,0.011,-0.02
103037,-9.835,-0.05,1.822,-0.005,0.011,-0.019
103140,-9.833,-0.055,1.827,-0.005,0.012,-0.02
103243,-9.835,-0.062,1.817,-0.005,0.012,-0.02
103346,-9.84,-0.06,1.82,-0.005,0.012,-0.02
103449,-9.838,-0.06,1.82,-0.005,0.012,-0.02
103552,-9.821,-0.06,1.827,-0.005,0.012,-0.02
103655,-9.835,-0.05,1.824,-0.005,0.012,-0.02
103758,-9.828,-0.057,1.832,-0.005,0.012,-0.02
103861,-9.835,-0.053,1.824,-0.005,0.013,-0.019
103964,-9.826,-0.055,1.848,-0.005,0.012,-0.02
104067,-9.833,-0.045,1.834,-0.005,0.012,-0.02
104170,-9.828,-0.048,1.817,-0.004,0.012,-0.02
104273,-9.833,-0.06,1.824,-0.005,0.011,-0.02
104376,-9.826,-0.055,1.832,-0.005,0.011,-0.02
104479,-9.838,-0.048,1.829,-0.005,0.012,-0.02
104582,-9.833,-0.06,1.817,-0.005,0.012,-0.02
104685,-9.831,-0.053,1.832,-0.005,0.012,-0.02
104788,-9.833,-0.055,1.834,-0.005,0.011,-0.019
104891,-9.838,-0.06,1.836,-0.005,0.012,-0.02
104994,-9.833,-0.062,1.841,-0.005,0.012,-0.02
105097,-9.84,-0.062,1.817,-0.005,0.012,-0.02
105200,-9.831,-0.053,1.832,-0.005,0.012,-0.02
105303,-9.833,-0.055,1.827,-0.005,0.012,-0.02
105406,-9.843,-0.06,1.844,-0.005,0.013,-0.019
105509,-9.826,-0.053,1.844,-0.005,0.012,-0.02
105612,-9.838,-0.055,1.829,-0.005,0.012,-0.02
105715,-9.835,-0.06,1.812,-0.005,0.013,-0.02
105818,-9.835,-0.053,1.832,-0.004,0.012,-0.02
105921,-9.84,-0.055,1.829,-0.005,0.012,-0.02
106024,-9.835,-0.057,1.834,-0.005,0.012,-0.019
106127,-9.833,-0.06,1.841,-0.005,0.012,-0.02
106230,-9.835,-0.062,1.846,-0.005,0.012,-0.02
106333,-9.833,-0.055,1.844,-0.005,0.012,-0.02
106436,-9.835,-0.053,1.827,-0.005,0.012,-0.02
106539,-9.826,-0.06,1.834,-0.004,0.012,-0.02
106642,-9.826,-0.065,1.829,-0.005,0.012,-0.02
106745,-9.831,-0.057,1.846,-0.005,0.012,-0.02
106848,-9.843,-0.053,1.832,-0.005,0.012,-0.02
106951,-9.821,-0.045,1.812,-0.005,0.012,-0.021
107054,-9.821,-0.055,1.822,-0.004,0.012,-0.019
107157,-9.823,-0.057,1.839,-0.005,0.012,-0.019
107260,-9.828,-0.045,1.829,-0.004,0.012,-0.019
107363,-9.838,-0.062,1.836,-0.004,0.012,-0.02
107466,-9.833,-0.05,1.836,-0.005,0.012,-0.02
107569,-9.835,-0.06,1.829,-0.005,0.012,-0.02
107672,-9.826,-0.053,1.832,-0.005,0.013,-0.02
107775,-9.831,-0.057,1.812,-0.005,0.012,-0.02
107878,-9.823,-0.062,1.839,-0.005,0.012,-0.02
107981,-9.828,-0.06,1.822,-0.005,0.013,-0.019
108084,-9.838,-0.05,1.834,-0.005,0.012,-0.02
108187,-9.833,-0.057,1.829,-0.005,0.012,-0.02
108290,-9.831,-0.055,1.827,-0.005,0.012,-0.02
108393,-9.826,-0.057,1.834,-0.005,0.011,-0.02
108496,-9.831,-0.053,1.832,-0.005,0.012,-0.02
108599,-9.823,-0.06,1.827,-0.005,0.011,-0.02
108702,-9.826,-0.043,1.834,-0.005,0.012,-0.02
108805,-9.833,-0.045,1.836,-0.005,0.012,-0.019
108908,-9.835,-0.048,1.827,-0.005,0.012,-0.02
109011,-9.828,-0.053,1.832,-0.005,0.012,-0.02
109114,-9.828,-0.057,1.829,-0.005,0.012,-0.02
109217,-9.828,-0.06,1.839,-0.005,0.012,-0.02
109320,-9.828,-0.05,1.836,-0.005,0.012,-0.02
109423,-9.831,-0.057,1.832,-0.005,0.012,-0.02
109526,-9.835,-0.045,1.827,-0.005,0.012,-0.02
109629,-9.828,-0.055,1.822,-0.005,0.012,-0.02
109732,-9.838,-0.06,1.836,-0.005,0.012,-0.02
109835,-9.819,-0.053,1.834,-0.005,0.011,-0.02
109938,-9.823,-0.055,1.829,-0.005,0.012,-0.02
110041,-9.831,-0.06,1.827,-0.005,0.012,-0.02
110144,-9.833,-0.053,1.815,-0.004,0.012,-0.02
110247,-9.838,-0.053,1.829,-0.005,0.012,-0.02
110350,-9.833,-0.057,1.824,-0.005,0.012,-0.02
110453,-9.835,-0.053,1.844,-0.005,0.012,-0.02
110556,-9.835,-0.048,1.82,-0.005,0.012,-0.02
110659,-9.838,-0.057,1.829,-0.005,0.012,-0.02
110762,-9.84,-0.06,1.834,-0.005,0.012,-0.019
110865,-9.831,-0.05,1.815,-0.004,0.012,-0.02
110968,-10.003,0.045,2.545,-0.019,0.07,-0.028
111071,-9.701,-0.242,0.148,-0.02,0.863,-0.08
111174,-9.843,-0.17,0.204,-0.008,0.124,-0.03
111277,-9.907,-0.172,0.383,-0.006,0.015,-0.02
111380,-9.91,-0.182,0.39,-0.005,0.011,-0.02
111483,-9.914,-0.168,0.4,-0.006,0.012,-0.019
111586,-9.907,-0.163,0.388,-0.005,0.011,-0.019
111689,-9.91,-0.158,0.395,-0.005,0.012,-0.02
111792,-9.912,-0.165,0.388,-0.005,0.012,-0.019
111895,-9.907,-0.168,0.381,-0.005,0.012,-0.02
111998,-9.912,-0.172,0.381,-0.005,0.012,-0.02
112101,-9.91,-0.177,0.383,-0.005,0.012,-0.02
112204,-9.91,-0.175,0.397,-0.005,0.012,-0.019
112307,-9.912,-0.177,0.383,-0.005,0.012,-0.02
112410,-9.912,-0.17,0.373,-0.005,0.012,-0.019
112513,-10.017,-0.132,2.318,-0.002,-1.555,0.07
112616,-9.864,-0.026,2.452,-0.006,-0.164,-0.007
112719,-9.773,-0.022,2.236,-0.005,0.002,-0.021
112822,-9.771,-0.026,2.248,-0.006,0.012,-0.02
112925,-9.768,-0.022,2.241,-0.004,0.011,-0.021
113028,-9.773,-0.029,2.251,-0.006,0.013,-0.019
113131,-9.768,-0.031,2.246,-0.005,0.012,-0.02
113234,-9.771,-0.026,2.236,-0.005,0.013,-0.019
113337,-9.783,-0.026,2.222,-0.005,0.012,-0.02
113440,-9.771,-0.022,2.236,-0.005,0.012,-0.021
113543,-9.766,-0.024,2.236,-0.005,0.012,-0.02
113646,-9.773,-0.031,2.246,-0.005,0.012,-0.02
113749,-9.778,-0.017,2.236,-0.005,0.012,-0.02
113852,-9.766,-0.019,2.227,-0.005,0.012,-0.02
113955,-9.771,-0.026,2.243,-0.004,0.012,-0.02
114058,-9.761,-0.026,2.236,-0.005,0.012,-0.02
114161,-9.764,-0.026,2.236,-0.005,0.012,-0.02
114264,-9.787,-0.031,2.258,-0.005,0.012,-0.019
114367,-9.761,-0.026,2.239,-0.005,0.013,-0.02
114470,-9.773,-0.034,2.236,-0.005,0.011,-0.02
114573,-9.771,-0.024,2.241,-0.005,0.013,-0.02
114676,-9.773,-0.019,2.236,-0.005,0.011,-0.02
114779,-9.783,-0.041,2.239,-0.005,0.012,-0.021
114882,-9.776,-0.036,2.236,-0.005,0.012,-0.02
114985,-9.771,-0.031,2.234,-0.004,0.011,-0.02
115088,-9.771,-0.029,2.241,-0.005,0.012,-0.019
115191,-9.776,-0.038,2.227,-0.004,0.011,-0.02
115294,-9.768,-0.038,2.241,-0.005,0.012,-0.019
115397,-9.766,-0.036,2.241,-0.005,0.012,-0.02
115500,-9.778,-0.022,2.234,-0.005,0.012,-0.02
115603,-9.764,-0.031,2.243,-0.005,0.012,-0.02
115706,-9.764,-0.026,2.253,-0.005,0.012,-0.02
115809,-9.768,-0.024,2.246,-0.005,0.013,-0.02
115912,-9.776,-0.031,2.236,-0.005,0.011,-0.02
116015,-9.776,-0.022,2.239,-0.005,0.011,-0.02
116118,-9.768,-0.024,2.241,-0.005,0.012,-0.02
116221,-9.776,-0.034,2.246,-0.005,0.012,-0.019
116324,-9.761,-0.029,2.234,-0.005,0.012,-0.02
116427,-9.773,-0.024,2.239,-0.005,0.011,-0.02
116530,-9.776,-0.022,2.231,-0.005,0.012,-0.02
116633,-9.771,-0.026,2.246,-0.005,0.012,-0.02
116736,-9.771,-0.036,2.234,-0.005,0.012,-0.02
116839,-9.766,-0.019,2.236,-0.005,0.012,-0.02
116942,-9.773,-0.026,2.253,-0.004,0.012,-0.02
117045,-9.773,-0.024,2.236,-0.005,0.011,-0.02
117148,-9.773,-0.031,2.239,-0.005,0.012,-0.02
117251,-9.776,-0.034,2.239,-0.005,0.011,-0.02
117354,-9.768,-0.026,2.246,-0.005,0.011,-0.02
117457,-9.773,-0.031,2.253,-0.004,0.012,-0.02
117560,-9.761,-0.031,2.236,-0.005,0.012,-0.02
117663,-9.771,-0.024,2.239,-0.005,0.012,-0.02
117766,-9.778,-0.017,2.243,-0.006,0.011,-0.02
117869,-9.761,-0.029,2.231,-0.005,0.012,-0.02
117972,-9.761,-0.029,2.246,-0.005,0.012,-0.02
118075,-9.761,-0.026,2.255,-0.005,0.012,-0.02
118178,-9.776,-0.026,2.243,-0.004,0.012,-0.02
118281,-9.768,-0.036,2.246,-0.004,0.012,-0.02
118384,-9.768,-0.024,2.251,-0.005,0.012,-0.019
118487,-9.778,-0.026,2.229,-0.005,0.012,-0.02
118590,-9.768,-0.024,2.241,-0.005,0.012,-0.02
118693,-9.756,-0.036,2.234,-0.004,0.012,-0.02
118796,-9.776,-0.029,2.229,-0.005,0.012,-0.02
118899,-9.773,-0.026,2.246,-0.005,0.012,-0.02
119002,-9.773,-0.026,2.243,-0.005,0.012,-0.02
119105,-9.771,-0.034,2.229,-0.005,0.012,-0.02
119208,-9.766,-0.026,2.239,-0.005,0.012,-0.02
119311,-9.768,-0.031,2.236,-0.004,0.012,-0.02
119414,-9.778,-0.024,2.248,-0.005,0.012,-0.021
119517,-9.764,-0.024,2.231,-0.004,0.012,-0.02
119620,-9.776,-0.024,2.229,-0.005,0.012,-0.02
119723,-9.773,-0.019,2.229,-0.005,0.012,-0.02
119826,-9.768,-0.038,2.239,-0.005,0.012,-0.02
119929,-9.771,-0.041,2.227,-0.005,0.012,-0.02
120032,-9.771,-0.029,2.239,-0.005,0.012,-0.02
120135,-9.768,-0.026,2.219,-0.004,0.012,-0.019
120238,-9.771,-0.036,2.236,-0.005,0.012,-0.02
120341,-9.773,-0.031,2.229,-0.005,0.012,-0.02
120444,-9.778,-0.029,2.251,-0.005,0.012,-0.019
120547,-9.771,-0.029,2.243,-0.005,0.012,-0.02
120650,-9.771,-0.026,2.234,-0.005,0.012,-0.02
120753,-9.776,-0.034,2.239,-0.005,0.012,-0.02
120856,-9.785,-0.022,2.239,-0.004,0.012,-0.02
120959,-9.771,-0.024,2.224,-0.005,0.012,-0.02
121062,-9.773,-0.031,2.224,-0.005,0.012,-0.02
121165,-9.766,-0.026,2.243,-0.005,0.012,-0.02
121268,-9.761,-0.017,2.239,-0.005,0.011,-0.02
121371,-9.766,-0.029,2.239,-0.005,0.011,-0.02
121474,-9.778,-0.022,2.241,-0.005,0.012,-0.021
121577,-9.766,-0.029,2.239,-0.004,0.012,-0.02
121680,-9.766,-0.034,2.229,-0.005,0.012,-0.02
121783,-9.768,-0.022,2.246,-0.005,0.012,-0.02
121886,-9.776,-0.026,2.231,-0.005,0.012,-0.02
121989,-9.766,-0.017,2.239,-0.005,0.012,-0.02
122092,-9.773,-0.026,2.241,-0.004,0.012,-0.02
122195,-9.773,-0.036,2.246,-0.005,0.012,-0.02
122298,-9.771,-0.031,2.239,-0.005,0.013,-0.02
122401,-9.773,-0.031,2.239,-0.005,0.012,-0.02
122504,-9.776,-0.029,2.241,-0.005,0.012,-0.02
122607,-9.776,-0.029,2.231,-0.005,0.011,-0.02
122710,-9.766,-0.026,2.234,-0.005,0.012,-0.02
122813,-9.773,-0.022,2.236,-0.005,0.012,-0.02
122916,-9.773,-0.029,2.243,-0.004,0.013,-0.02
123019,-9.766,-0.026,2.229,-0.005,0.012,-0.02
123122,-9.764,-0.024,2.227,-0.004,0.011,-0.021
123225,-9.771,-0.026,2.246,-0.004,0.013,-0.02
123328,-9.771,-0.034,2.243,-0.005,0.011,-0.021
123431,-9.766,-0.029,2.219,-0.005,0.013,-0.02
123534,-9.783,-0.029,2.217,-0.005,0.012,-0.02
123637,-9.78,-0.019,2.241,-0.005,0.012,-0.02
123740,-9.768,-0.024,2.227,-0.005,0.012,-0.02
123843,-9.768,-0.029,2.229,-0.005,0.012,-0.02
123946,-9.773,-0.036,2.239,-0.005,0.012,-0.021
124049,-9.773,-0.024,2.248,-0.005,0.013,-0.02
124152,-9.768,-0.029,2.248,-0.005,0.012,-0.021
124255,-9.766,-0.026,2.234,-0.005,0.013,-0.02
124358,-9.773,-0.024,2.241,-0.005,0.012,-0.02
124461,-9.778,-0.024,2.236,-0.005,0.012,-0.02
124564,-9.771,-0.019,2.239,-0.005,0.012,-0.021
124667,-9.778,-0.031,2.236,-0.005,0.011,-0.02
124770,-9.776,-0.036,2.239,-0.005,0.013,-0.02
124873,-9.771,-0.034,2.243,-0.004,0.012,-0.02
124976,-9.766,-0.024,2.241,-0.005,0.012,-0.02
125079,-9.771,-0.024,2.239,-0.005,0.012,-0.02
125182,-9.764,-0.026,2.243,-0.005,0.012,-0.02
125285,-9.764,-0.026,2.241,-0.005,0.012,-0.02
125388,-9.771,-0.024,2.231,-0.005,0.012,-0.02
125491,-9.773,-0.038,2.231,-0.006,0.012,-0.019
125594,-9.773,-0.034,2.243,-0.005,0.011,-0.021
125697,-9.764,-0.029,2.234,-0.005,0.013,-0.02
125800,-9.773,-0.031,2.243,-0.005,0.012,-0.02
125903,-9.766,-0.029,2.243,-0.005,0.012,-0.02
126006,-9.771,-0.022,2.229,-0.005,0.011,-0.02
126109,-9.773,-0.022,2.239,-0.005,0.012,-0.02
126212,-9.766,-0.029,2.246,-0.005,0.011,-0.021
126315,-9.773,-0.026,2.227,-0.004,0.013,-0.019
126418,-9.776,-0.022,2.236,-0.005,0.012,-0.021
126521,-9.773,-0.019,2.231,-0.005,0.012,-0.02
126624,-9.773,-0.024,2.253,-0.005,0.012,-0.02
126727,-9.761,-0.038,2.217,-0.005,0.012,-0.02
126830,-9.768,-0.029,2.239,-0.005,0.011,-0.02
126933,-9.771,-0.029,2.229,-0.004,0.012,-0.02
127036,-9.768,-0.029,2.251,-0.005,0.011,-0.021
127139,-9.768,-0.026,2.241,-0.004,0.012,-0.02
127242,-9.768,-0.024,2.239,-0.005,0.011,-0.02
127345,-9.778,-0.031,2.234,-0.005,0.012,-0.02
127448,-9.768,-0.026,2.236,-0.005,0.012,-0.02
127551,-9.778,-0.034,2.243,-0.005,0.012,-0.02
127654,-9.771,-0.024,2.243,-0.005,0.012,-0.02
127757,-9.778,-0.038,2.229,-0.004,0.012,-0.02
127860,-9.766,-0.036,2.243,-0.005,0.012,-0.02
127963,-9.764,-0.022,2.217,-0.005,0.012,-0.02
128066,-9.764,-0.031,2.246,-0.005,0.012,-0.02
128169,-9.764,-0.024,2.253,-0.005,0.012,-0.02
128272,-9.759,-0.024,2.239,-0.005,0.012,-0.02
128375,-9.771,-0.034,2.241,-0.004,0.012,-0.02
128478,-9.768,-0.017,2.241,-0.005,0.012,-0.02
128581,-9.771,-0.036,2.229,-0.005,0.012,-0.02
128684,-9.756,-0.024,2.236,-0.005,0.012,-0.02
128787,-9.776,-0.019,2.234,-0.005,0.012,-0.02
128890,-9.766,-0.031,2.229,-0.005,0.013,-0.02
128993,-9.778,-0.029,2.222,-0.005,0.011,-0.019
129096,-9.768,-0.034,2.234,-0.005,0.012,-0.02
129199,-9.771,-0.022,2.234,-0.005,0.012,-0.02
129302,-9.776,-0.024,2.234,-0.005,0.012,-0.02
129405,-9.766,-0.024,2.251,-0.005,0.012,-0.021
129508,-9.766,-0.026,2.239,-0.005,0.012,-0.02
129611,-9.768,-0.026,2.236,-0.005,0.012,-0.02
129714,-9.766,-0.024,2.241,-0.005,0.012,-0.02
129817,-9.761,-0.026,2.251,-0.005,0.012,-0.02
129920,-9.771,-0.017,2.231,-0.004,0.012,-0.02
130023,-9.768,-0.026,2.234,-0.005,0.013,-0.02
130126,-9.78,-0.036,2.246,-0.005,0.011,-0.02
130229,-9.771,-0.043,2.248,-0.005,0.013,-0.02
130332,-9.776,-0.026,2.227,-0.005,0.012,-0.02
130435,-9.764,-0.029,2.239,-0.005,0.012,-0.02
130538,-9.768,-0.034,2.239,-0.005,0.012,-0.02
130641,-9.768,-0.034,2.246,-0.005,0.012,-0.02
130744,-9.766,-0.034,2.239,-0.004,0.012,-0.02
130847,-9.773,-0.026,2.229,-0.005,0.012,-0.02
130950,-9.776,-0.034,2.234,-0.005,0.012,-0.02
131053,-9.776,-0.026,2.227,-0.004,0.012,-0.02
131156,-9.768,-0.036,2.236,-0.005,0.012,-0.02
131259,-9.773,-0.026,2.243,-0.004,0.012,-0.02
131362,-9.771,-0.01,2.231,-0.005,0.012,-0.02
131465,-9.776,-0.034,2.246,-0.005,0.012,-0.021
131568,-9.764,-0.034,2.217,-0.005,0.012,-0.02
131671,-9.776,-0.026,2.241,-0.005,0.013,-0.02
131774,-9.754,-0.024,2.258,-0.005,0.012,-0.02
131877,-9.783,-0.038,2.234,-0.005,0.012,-0.02
131980,-9.778,-0.026,2.239,-0.005,0.012,-0.019
132083,-9.773,-0.038,2.231,-0.005,0.011,-0.021
132186,-9.759,-0.022,2.243,-0.005,0.013,-0.02
132289,-9.776,-0.041,2.243,-0.005,0.012,-0.02
132392,-9.761,-0.031,2.239,-0.005,0.013,-0.02
132495,-9.766,-0.022,2.246,-0.005,0.012,-0.02
132598,-9.776,-0.036,2.246,-0.005,0.012,-0.02
132701,-9.768,-0.014,2.239,-0.004,0.012,-0.02
132804,-9.785,-0.026,2.236,-0.005,0.011,-0.019
132907,-9.761,-0.026,2.241,-0.005,0.012,-0.02
133010,-9.764,-0.029,2.243,-0.005,0.012,-0.02
133113,-9.771,-0.034,2.248,-0.005,0.012,-0.02
133216,-9.761,-0.024,2.243,-0.005,0.012,-0.02
133319,-9.766,-0.031,2.243,-0.005,0.012,-0.02
133422,-9.768,-0.022,2.239,-0.005,0.012,-0.02
133525,-9.778,-0.024,2.248,-0.004,0.012,-0.02
133628,-9.773,-0.019,2.231,-0.005,0.011,-0.02
133731,-9.773,-0.029,2.239,-0.005,0.012,-0.02
133834,-9.768,-0.036,2.234,-0.005,0.012,-0.02
133937,-9.776,-0.029,2.227,-0.005,0.012,-0.019
134040,-9.764,-0.022,2.239,-0.005,0.012,-0.02
134143,-9.776,-0.026,2.241,-0.005,0.013,-0.02
134246,-9.771,-0.026,2.236,-0.004,0.012,-0.02
134349,-9.768,-0.024,2.227,-0.005,0.012,-0.02
134452,-9.768,-0.014,2.234,-0.005,0.012,-0.02
134555,-9.778,-0.024,2.224,-0.005,0.012,-0.02
134658,-9.776,-0.038,2.241,-0.004,0.011,-0.02
134761,-9.773,-0.034,2.236,-0.005,0.011,-0.02
134864,-9.759,-0.034,2.236,-0.005,0.012,-0.02
134967,-9.771,-0.019,2.241,-0.005,0.012,-0.02
135070,-9.768,-0.036,2.246,-0.005,0.012,-0.02
135173,-9.768,-0.026,2.253,-0.005,0.012,-0.021
135276,-9.764,-0.024,2.253,-0.005,0.012,-0.02
135379,-9.766,-0.029,2.234,-0.004,0.012,-0.02
135482,-9.773,-0.034,2.229,-0.005,0.012,-0.02
135585,-9.776,-0.024,2.222,-0.005,0.013,-0.019
135688,-9.771,-0.024,2.224,-0.004,0.012,-0.02
135791,-9.773,-0.026,2.229,-0.005,0.012,-0.02
135894,-9.778,-0.031,2.236,-0.005,0.012,-0.02
135997,-9.761,-0.031,2.231,-0.005,0.012,-0.02
136100,-9.768,-0.026,2.236,-0.005,0.011,-0.02
136203,-9.764,-0.026,2.243,-0.005,0.012,-0.02
136306,-9.761,-0.019,2.234,-0.005,0.012,-0.02
136409,-9.778,-0.026,2.222,-0.005,0.011,-0.02
136512,-9.771,-0.026,2.234,-0.005,0.012,-0.02
136615,-9.764,-0.014,2.229,-0.005,0.013,-0.02
136718,-9.776,-0.019,2.234,-0.005,0.012,-0.02
136821,-9.759,-0.029,2.215,-0.005,0.013,-0.021
136924,-9.771,-0.026,2.229,-0.005,0.012,-0.02
137027,-9.783,-0.031,2.236,-0.005,0.012,-0.021
137130,-9.776,-0.019,2.234,-0.005,0.012,-0.02
137233,-9.773,-0.036,2.229,-0.004,0.012,-0.02
137336,-9.776,-0.024,2.227,-0.005,0.012,-0.02
137439,-9.766,-0.024,2.248,-0.005,0.013,-0.02
137542,-9.776,-0.034,2.239,-0.005,0.012,-0.021
137645,-9.771,-0.029,2.231,-0.004,0.012,-0.02
137748,-9.771,-0.022,2.241,-0.005,0.012,-0.02
137851,-9.773,-0.022,2.236,-0.005,0.012,-0.02
137954,-9.773,-0.022,2.241,-0.005,0.013,-0.02
138057,-9.766,-0.034,2.222,-0.004,0.012,-0.02
138160,-9.768,-0.029,2.234,-0.005,0.012,-0.02
138263,-9.773,-0.019,2.234,-0.005,0.012,-0.02
138366,-9.768,-0.022,2.246,-0.005,0.012,-0.02
138469,-9.773,-0.034,2.253,-0.005,0.012,-0.02
138572,-9.761,-0.026,2.241,-0.005,0.012,-0.02
138675,-9.778,-0.029,2.241,-0.005,0.012,-0.02
138778,-9.768,-0.017,2.251,-0.005,0.013,-0.02
138881,-9.771,-0.029,2.246,-0.005,0.012,-0.02
138984,-9.78,-0.029,2.234,-0.005,0.012,-0.02
139087,-9.78,-0.026,2.229,-0.005,0.012,-0.02
139190,-9.776,-0.029,2.234,-0.005,0.012,-0.02
139293,-9.776,-0.029,2.231,-0.005,0.012,-0.02
139396,-9.778,-0.029,2.234,-0.005,0.011,-0.02
139499,-9.768,-0.024,2.241,-0.005,0.012,-0.02
139602,-9.766,-0.026,2.246,-0.005,0.012,-0.019
139705,-9.776,-0.017,2.248,-0.005,0.012,-0.02
139808,-9.768,-0.026,2.229,-0.004,0.012,-0.02
139911,-9.768,-0.024,2.239,-0.005,0.012,-0.019
140014,-9.764,-0.024,2.239,-0.005,0.012,-0.019
140117,-9.78,-0.026,2.246,-0.005,0.012,-0.02
140220,-9.773,-0.024,2.241,-0.005,0.012,-0.02
140323,-9.764,-0.036,2.231,-0.005,0.012,-0.021
140426,-9.766,-0.014,2.236,-0.005,0.011,-0.02
140529,-9.768,-0.034,2.236,-0.005,0.012,-0.02
140632,-9.776,-0.024,2.251,-0.005,0.012,-0.02
140735,-9.766,-0.031,2.241,-0.005,0.012,-0.021
140838,-9.771,-0.024,2.241,-0.005,0.012,-0.02
140941,-9.773,-0.026,2.229,-0.005,0.012,-0.02
141044,-9.771,-0.031,2.239,-0.005,0.012,-0.02
141147,-9.78,-0.034,2.229,-0.005,0.012,-0.019
141250,-9.766,-0.031,2.248,-0.005,0.012,-0.02
141353,-9.773,-0.043,2.231,-0.005,0.012,-0.02
141456,-9.761,-0.031,2.246,-0.004,0.012,-0.02
141559,-9.764,-0.036,2.248,-0.005,0.012,-0.02
141662,-9.773,-0.024,2.229,-0.005,0.012,-0.02
141765,-9.768,-0.036,2.251,-0.005,0.011,-0.02
141868,-9.773,-0.029,2.234,-0.005,0.012,-0.02
141971,-9.766,-0.041,2.236,-0.005,0.012,-0.02
142074,-9.771,-0.036,2.251,-0.005,0.012,-0.02
142177,-9.766,-0.024,2.248,-0.005,0.012,-0.021
142280,-9.773,-0.029,2.239,-0.005,0.012,-0.02
142383,-9.776,-0.022,2.234,-0.005,0.013,-0.02
142486,-9.78,-0.034,2.241,-0.004,0.012,-0.02
142589,-9.768,-0.026,2.222,-0.005,0.012,-0.02
142692,-9.773,-0.034,2.229,-0.005,0.012,-0.02
142795,-9.761,-0.026,2.234,-0.005,0.012,-0.02
142898,-9.773,-0.024,2.246,-0.005,0.012,-0.02
143001,-9.768,-0.029,2.246,-0.005,0.012,-0.02
143104,-9.766,-0.026,2.243,-0.004,0.013,-0.02
143207,-9.768,-0.031,2.234,-0.005,0.013,-0.019
143310,-9.771,-0.029,2.231,-0.005,0.012,-0.02
143413,-9.764,-0.024,2.222,-0.005,0.012,-0.02
143516,-9.768,-0.026,2.248,-0.005,0.012,-0.021
143619,-9.768,-0.036,2.251,-0.005,0.012,-0.021
143722,-9.766,-0.026,2.227,-0.005,0.012,-0.019
143825,-9.773,-0.026,2.231,-0.005,0.012,-0.02
143928,-9.768,-0.036,2.241,-0.005,0.012,-0.02
144031,-9.78,-0.034,2.253,-0.005,0.013,-0.02
144134,-9.776,-0.038,2.246,-0.005,0.012,-0.02
144237,-9.783,-0.026,2.236,-0.004,0.013,-0.02
144340,-9.771,-0.022,2.241,-0.005,0.012,-0.021
144443,-9.783,-0.029,2.236,-0.005,0.012,-0.02
144546,-9.768,-0.029,2.246,-0.005,0.012,-0.02
144649,-9.78,-0.022,2.236,-0.005,0.012,-0.02
144752,-9.773,-0.026,2.239,-0.004,0.012,-0.02
144855,-9.766,-0.019,2.222,-0.005,0.012,-0.02
144958,-9.761,-0.029,2.248,-0.005,0.012,-0.02
145061,-9.764,-0.029,2.239,-0.004,0.013,-0.02
145164,-9.764,-0.019,2.243,-0.005,0.012,-0.02
145267,-9.773,-0.034,2.248,-0.005,0.012,-0.02
145370,-9.771,-0.029,2.246,-0.005,0.012,-0.02
145473,-9.768,-0.022,2.231,-0.005,0.012,-0.02
145576,-9.761,-0.022,2.236,-0.005,0.012,-0.02
145679,-9.768,-0.029,2.236,-0.005,0.012,-0.02
145782,-9.771,-0.024,2.241,-0.004,0.012,-0.02
145885,-9.776,-0.024,2.239,-0.005,0.011,-0.02
145988,-9.768,-0.029,2.229,-0.005,0.012,-0.02
146091,-9.785,-0.034,2.229,-0.005,0.012,-0.02
146194,-9.771,-0.031,2.229,-0.005,0.012,-0.02
146297,-9.771,-0.026,2.234,-0.005,0.012,-0.02
146400,-9.778,-0.026,2.236,-0.005,0.012,-0.02
146503,-9.773,-0.031,2.241,-0.005,0.012,-0.02
146606,-9.776,-0.024,2.231,-0.005,0.012,-0.021
146709,-9.764,-0.031,2.243,-0.005,0.012,-0.021
146812,-9.768,-0.026,2.241,-0.005,0.012,-0.02
146915,-9.785,-0.029,2.241,-0.004,0.012,-0.02
147018,-9.768,-0.026,2.234,-0.005,0.012,-0.02
147121,-9.761,-0.024,2.26,-0.005,0.012,-0.02
147224,-9.764,-0.031,2.243,-0.005,0.012,-0.02
147327,-9.768,-0.026,2.239,-0.004,0.012,-0.02
147430,-9.768,-0.024,2.231,-0.005,0.012,-0.02
147533,-9.78,-0.029,2.231,-0.005,0.012,-0.02
147636,-9.78,-0.034,2.251,-0.005,0.012,-0.02
147739,-9.785,-0.031,2.253,-0.005,0.012,-0.02
147842,-9.783,-0.022,2.231,-0.005,0.012,-0.02
147945,-9.776,-0.022,2.248,-0.005,0.013,-0.02
148048,-9.768,-0.017,2.229,-0.004,0.011,-0.02
148151,-9.773,-0.024,2.231,-0.005,0.013,-0.02
148254,-9.778,-0.026,2.248,-0.005,0.011,-0.02
148357,-9.766,-0.022,2.243,-0.005,0.012,-0.02
148460,-9.78,-0.022,2.241,-0.005,0.012,-0.02
148563,-9.773,-0.024,2.241,-0.005,0.012,-0.02
148666,-9.78,-0.022,2.243,-0.005,0.012,-0.021
148769,-9.766,-0.026,2.246,-0.005,0.012,-0.02
148872,-9.766,-0.019,2.227,-0.005,0.012,-0.02
148975,-9.766,-0.036,2.217,-0.005,0.012,-0.02
149078,-9.766,-0.019,2.241,-0.005,0.013,-0.02
149181,-9.768,-0.036,2.236,-0.005,0.012,-0.02
149284,-9.768,-0.022,2.236,-0.005,0.012,-0.02
149387,-9.761,-0.034,2.243,-0.005,0.012,-0.02
149490,-9.768,-0.029,2.239,-0.005,0.012,-0.02
149593,-9.761,-0.031,2.236,-0.005,0.012,-0.02
149696,-9.759,-0.019,2.246,-0.005,0.012,-0.02
149799,-9.768,-0.026,2.227,-0.005,0.012,-0.02
149902,-9.768,-0.029,2.227,-0.005,0.012,-0.02
150005,-9.773,-0.026,2.241,-0.005,0.011,-0.02
150108,-9.771,-0.034,2.246,-0.005,0.012,-0.02
150211,-9.773,-0.031,2.243,-0.005,0.012,-0.02
150314,-9.771,-0.029,2.253,-0.004,0.012,-0.02
150417,-9.771,-0.024,2.236,-0.005,0.012,-0.02
150520,-9.768,-0.036,2.243,-0.005,0.012,-0.02
150623,-9.773,-0.029,2.253,-0.005,0.013,-0.02
150726,-9.766,-0.029,2.229,-0.005,0.012,-0.02
150829,-9.766,-0.026,2.236,-0.005,0.012,-0.021
150932,-9.761,-0.019,2.234,-0.005,0.012,-0.02
151035,-9.766,-0.019,2.241,-0.004,0.011,-0.02
151138,-9.766,-0.029,2.239,-0.005,0.012,-0.021
151241,-9.776,-0.031,2.236,-0.005,0.012,-0.02
151344,-9.778,-0.026,2.234,-0.005,0.012,-0.02
151447,-9.776,-0.026,2.234,-0.005,0.012,-0.02
151550,-9.776,-0.024,2.253,-0.005,0.012,-0.02
151653,-9.768,-0.036,2.246,-0.004,0.012,-0.02
151756,-9.768,-0.026,2.227,-0.004,0.012,-0.02
151859,-9.764,-0.029,2.243,-0.005,0.012,-0.02
151962,-9.778,-0.022,2.248,-0.005,0.012,-0.02
152065,-9.773,-0.024,2.241,-0.005,0.012,-0.02
152168,-9.78,-0.029,2.241,-0.005,0.012,-0.02
152271,-9.766,-0.031,2.229,-0.005,0.012,-0.02
152374,-9.764,-0.019,2.229,-0.004,0.012,-0.02
152477,-9.768,-0.026,2.231,-0.005,0.012,-0.02
152580,-9.766,-0.031,2.231,-0.005,0.012,-0.02
152683,-9.776,-0.026,2.227,-0.005,0.012,-0.02
152786,-9.776,-0.031,2.239,-0.005,0.012,-0.02
152889,-9.764,-0.026,2.241,-0.005,0.012,-0.02
152992,-9.764,-0.029,2.234,-0.005,0.012,-0.02
153095,-9.771,-0.026,2.231,-0.004,0.013,-0.02
153198,-9.776,-0.029,2.243,-0.005,0.012,-0.02
153301,-9.768,-0.041,2.236,-0.005,0.012,-0.021
153404,-9.776,-0.024,2.239,-0.005,0.012,-0.019
153507,-9.768,-0.029,2.229,-0.005,0.012,-0.019
153610,-9.773,-0.024,2.243,-0.004,0.011,-0.02
153713,-9.773,-0.043,2.248,-0.004,0.013,-0.02
153816,-9.776,-0.022,2.239,-0.005,0.012,-0.02
153919,-9.783,-0.034,2.229,-0.005,0.012,-0.02
154022,-9.768,-0.031,2.236,-0.005,0.012,-0.02
154125,-9.773,-0.019,2.227,-0.005,0.012,-0.02
154228,-9.768,-0.026,2.231,-0.005,0.012,-0.02
154331,-9.773,-0.022,2.243,-0.005,0.012,-0.02
154434,-9.773,-0.019,2.231,-0.004,0.012,-0.02
154537,-9.778,-0.026,2.234,-0.005,0.013,-0.02
154640,-9.771,-0.034,2.229,-0.005,0.012,-0.02
154743,-9.761,-0.029,2.229,-0.005,0.012,-0.021
154846,-9.773,-0.034,2.243,-0.005,0.012,-0.02
154949,-9.768,-0.034,2.234,-0.005,0.012,-0.02
155052,-9.771,-0.031,2.231,-0.005,0.012,-0.02
155155,-9.773,-0.029,2.243,-0.005,0.012,-0.02
155258,-9.768,-0.024,2.224,-0.005,0.012,-0.019
155361,-9.764,-0.022,2.229,-0.005,0.012,-0.02
155464,-9.766,-0.024,2.243,-0.005,0.012,-0.019
155567,-9.778,-0.034,2.224,-0.005,0.012,-0.02
155670,-9.766,-0.026,2.248,-0.005,0.012,-0.02
155773,-9.771,-0.022,2.243,-0.004,0.012,-0.02
155876,-9.771,-0.019,2.248,-0.005,0.012,-0.02
155979,-9.771,-0.024,2.236,-0.005,0.011,-0.021
156082,-9.771,-0.026,2.227,-0.005,0.012,-0.02
156185,-9.776,-0.034,2.236,-0.005,0.012,-0.02
156288,-9.768,-0.026,2.239,-0.005,0.012,-0.02
156391,-9.768,-0.034,2.231,-0.005,0.012,-0.02
156494,-9.771,-0.019,2.234,-0.005,0.012,-0.02
156597,-9.771,-0.024,2.231,-0.005,0.012,-0.021
156700,-9.761,-0.029,2.246,-0.005,0.013,-0.02
156803,-9.776,-0.031,2.246,-0.004,0.012,-0.02
156906,-9.773,-0.029,2.251,-0.004,0.012,-0.02
157009,-9.778,-0.038,2.243,-0.005,0.012,-0.02
157112,-9.756,-0.031,2.229,-0.004,0.012,-0.021
157215,-9.771,-0.026,2.231,-0.004,0.012,-0.021
157318,-9.766,-0.029,2.246,-0.005,0.013,-0.02
157421,-9.766,-0.017,2.239,-0.005,0.012,-0.02
157524,-9.776,-0.034,2.241,-0.004,0.013,-0.02
157627,-9.776,-0.029,2.239,-0.005,0.012,-0.02
157730,-9.768,-0.024,2.234,-0.005,0.012,-0.02
157833,-9.771,-0.029,2.229,-0.004,0.012,-0.02
157936,-9.778,-0.029,2.243,-0.005,0.012,-0.02
158039,-9.773,-0.031,2.241,-0.005,0.012,-0.02
158142,-9.776,-0.038,2.248,-0.005,0.012,-0.02
158245,-9.768,-0.031,2.248,-0.005,0.012,-0.019
158348,-9.785,-0.031,2.239,-0.005,0.013,-0.021
158451,-9.768,-0.031,2.251,-0.005,0.013,-0.02
158554,-9.768,-0.031,2.231,-0.004,0.012,-0.02
158657,-9.771,-0.029,2.222,-0.005,0.012,-0.02
158760,-9.768,-0.029,2.248,-0.005,0.012,-0.02
158863,-9.766,-0.026,2.241,-0.005,0.012,-0.02
158966,-9.778,-0.022,2.243,-0.005,0.012,-0.02
159069,-9.773,-0.024,2.241,-0.005,0.012,-0.02
159172,-9.778,-0.019,2.236,-0.005,0.012,-0.02
159275,-9.764,-0.022,2.248,-0.005,0.012,-0.02
159378,-9.778,-0.022,2.234,-0.005,0.012,-0.02
159481,-9.764,-0.029,2.248,-0.004,0.012,-0.02
159584,-9.776,-0.019,2.234,-0.005,0.013,-0.02
159687,-9.766,-0.026,2.222,-0.005,0.012,-0.02
159790,-9.771,-0.029,2.243,-0.005,0.012,-0.02
159893,-9.773,-0.019,2.251,-0.004,0.012,-0.019
159996,-9.773,-0.024,2.246,-0.005,0.012,-0.02
160099,-9.773,-0.029,2.239,-0.005,0.011,-0.02
160202,-9.773,-0.022,2.241,-0.005,0.012,-0.02
160305,-9.771,-0.026,2.241,-0.005,0.012,-0.021
160408,-9.766,-0.029,2.231,-0.005,0.012,-0.02
160511,-9.764,-0.017,2.246,-0.005,0.012,-0.02
160614,-9.759,-0.024,2.229,-0.005,0.011,-0.02
160717,-9.771,-0.031,2.246,-0.005,0.012,-0.02
160820,-9.771,-0.029,2.227,-0.005,0.012,-0.02
160923,-9.773,-0.022,2.231,-0.005,0.012,-0.02
161026,-9.771,-0.034,2.219,-0.005,0.012,-0.02
161129,-9.766,-0.026,2.236,-0.005,0.012,-0.02
161232,-9.776,-0.034,2.224,-0.004,0.012,-0.02
161335,-9.766,-0.031,2.236,-0.005,0.012,-0.019
161438,-9.773,-0.029,2.239,-0.005,0.012,-0.02
161541,-9.771,-0.031,2.239,-0.004,0.012,-0.02
161644,-9.768,-0.026,2.241,-0.005,0.012,-0.02
161747,-9.773,-0.034,2.246,-0.005,0.013,-0.02
161850,-9.768,-0.034,2.212,-0.005,0.012,-0.02
161953,-9.766,-0.031,2.231,-0.005,0.012,-0.02
162056,-9.771,-0.024,2.219,-0.005,0.013,-0.02
162159,-9.768,-0.022,2.231,-0.005,0.012,-0.02
162262,-9.764,-0.031,2.227,-0.004,0.012,-0.02
162365,-9.778,-0.031,2.234,-0.005,0.012,-0.02
162468,-9.764,-0.034,2.243,-0.005,0.012,-0.02
162571,-9.773,-0.029,2.236,-0.005,0.012,-0.019
162674,-9.773,-0.019,2.217,-0.005,0.012,-0.02
162777,-9.768,-0.024,2.224,-0.005,0.013,-0.02
162880,-9.778,-0.024,2.236,-0.005,0.012,-0.02
162983,-9.773,-0.024,2.246,-0.005,0.011,-0.02
163086,-9.771,-0.036,2.219,-0.005,0.012,-0.02
163189,-9.773,-0.036,2.224,-0.005,0.012,-0.02
163292,-9.764,-0.029,2.248,-0.004,0.012,-0.019
163395,-9.771,-0.036,2.224,-0.005,0.013,-0.02
163498,-9.766,-0.029,2.227,-0.005,0.012,-0.019
163601,-9.764,-0.031,2.229,-0.005,0.012,-0.021
163704,-9.764,-0.024,2.241,-0.005,0.012,-0.02
163807,-9.778,-0.031,2.241,-0.005,0.012,-0.02
163910,-9.771,-0.022,2.234,-0.004,0.012,-0.02
164013,-9.764,-0.034,2.241,-0.005,0.012,-0.02
164116,-9.768,-0.029,2.241,-0.005,0.011,-0.02
164219,-9.766,-0.029,2.231,-0.004,0.012,-0.02
164322,-9.783,-0.031,2.239,-0.005,0.012,-0.019
164425,-9.764,-0.031,2.236,-0.005,0.012,-0.02
164528,-9.766,-0.026,2.241,-0.005,0.012,-0.02
164631,-9.764,-0.026,2.234,-0.005,0.012,-0.02
164734,-9.768,-0.019,2.234,-0.005,0.012,-0.02
164837,-9.759,-0.034,2.239,-0.005,0.012,-0.02
164940,-9.771,-0.036,2.236,-0.005,0.012,-0.02
165043,-9.764,-0.024,2.231,-0.005,0.012,-0.02
165146,-9.768,-0.019,2.243,-0.005,0.012,-0.02
165249,-9.771,-0.034,2.241,-0.005,0.012,-0.02
165352,-9.773,-0.031,2.234,-0.005,0.012,-0.02
165455,-9.78,-0.017,2.224,-0.004,0.012,-0.02
165558,-9.773,-0.026,2.229,-0.005,0.013,-0.02
165661,-9.759,-0.022,2.248,-0.005,0.012,-0.02
165764,-9.771,-0.031,2.227,-0.004,0.012,-0.02
165867,-9.776,-0.026,2.246,-0.005,0.012,-0.02
165970,-9.764,-0.026,2.229,-0.005,0.012,-0.021
166073,-9.764,-0.017,2.224,-0.005,0.012,-0.02
166176,-9.771,-0.026,2.224,-0.004,0.012,-0.02
166279,-9.771,-0.029,2.239,-0.004,0.012,-0.02
166382,-9.771,-0.024,2.227,-0.005,0.012,-0.019
166485,-9.773,-0.026,2.239,-0.004,0.012,-0.02
166588,-9.783,-0.029,2.234,-0.005,0.012,-0.02
166691,-9.766,-0.022,2.217,-0.005,0.013,-0.02
166794,-9.78,-0.034,2.246,-0.005,0.012,-0.021
166897,-9.773,-0.029,2.234,-0.005,0.012,-0.02
167000,-9.771,-0.029,2.224,-0.005,0.012,-0.019
167103,-9.773,-0.026,2.243,-0.005,0.012,-0.02
167206,-9.766,-0.029,2.231,-0.004,0.012,-0.02
167309,-9.761,-0.026,2.236,-0.005,0.012,-0.02
167412,-9.771,-0.031,2.229,-0.005,0.013,-0.02
167515,-9.764,-0.034,2.229,-0.005,0.012,-0.02
167618,-9.773,-0.022,2.241,-0.005,0.012,-0.02
167721,-9.764,-0.024,2.239,-0.005,0.012,-0.02
167824,-9.766,-0.019,2.236,-0.005,0.012,-0.02
167927,-9.773,-0.036,2.251,-0.005,0.012,-0.02
168030,-9.778,-0.038,2.243,-0.005,0.012,-0.019
168133,-9.773,-0.026,2.231,-0.005,0.013,-0.021
168236,-9.759,-0.026,2.241,-0.005,0.012,-0.019
168339,-9.766,-0.026,2.239,-0.005,0.012,-0.02
168442,-9.768,-0.031,2.227,-0.004,0.012,-0.02
168545,-9.78,-0.024,2.222,-0.005,0.012,-0.02
168648,-9.771,-0.034,2.222,-0.004,0.012,-0.021
168751,-9.764,-0.031,2.241,-0.005,0.012,-0.02
168854,-9.773,-0.026,2.227,-0.004,0.012,-0.02
168957,-9.761,-0.038,2.243,-0.005,0.012,-0.02
169060,-9.768,-0.041,2.241,-0.005,0.012,-0.019
169163,-9.771,-0.031,2.222,-0.004,0.012,-0.02
169266,-9.773,-0.029,2.231,-0.005,0.012,-0.02
169369,-9.759,-0.029,2.236,-0.004,0.013,-0.02
169472,-9.771,-0.024,2.241,-0.005,0.012,-0.02
169575,-9.776,-0.024,2.241,-0.005,0.012,-0.02
169678,-9.776,-0.026,2.241,-0.005,0.012,-0.019
169781,-9.776,-0.024,2.231,-0.005,0.012,-0.02
169884,-9.771,-0.036,2.239,-0.005,0.012,-0.02
169987,-9.766,-0.031,2.241,-0.005,0.012,-0.02
170090,-9.761,-0.031,2.239,-0.004,0.012,-0.02
170193,-9.768,-0.022,2.251,-0.005,0.012,-0.02
170296,-9.761,-0.029,2.224,-0.005,0.012,-0.02
170399,-9.764,-0.026,2.229,-0.005,0.012,-0.02
170502,-9.768,-0.026,2.231,-0.005,0.012,-0.019
170605,-9.771,-0.029,2.241,-0.005,0.012,-0.02
170708,-9.776,-0.036,2.236,-0.005,0.012,-0.02
170811,-9.766,-0.022,2.229,-0.005,0.012,-0.02
170914,-9.768,-0.012,2.236,-0.005,0.012,-0.02
171017,-9.768,-0.024,2.251,-0.005,0.012,-0.02
171120,-9.771,-0.026,2.241,-0.005,0.012,-0.02
171223,-9.771,-0.031,2.246,-0.005,0.012,-0.02
171326,-9.773,-0.034,2.234,-0.005,0.012,-0.02
171429,-9.768,-0.024,2.227,-0.005,0.012,-0.02
171532,-9.756,-0.034,2.241,-0.004,0.012,-0.02
171635,-9.776,-0.024,2.234,-0.004,0.012,-0.02
171738,-9.764,-0.034,2.236,-0.005,0.012,-0.02
171841,-9.768,-0.024,2.224,-0.004,0.012,-0.019
171944,-9.773,-0.031,2.236,-0.005,0.012,-0.021
172047,-9.771,-0.024,2.239,-0.005,0.012,-0.02
172150,-9.766,-0.024,2.236,-0.005,0.012,-0.02
172253,-9.776,-0.022,2.239,-0.005,0.012,-0.02
172356,-9.778,-0.029,2.241,-0.005,0.012,-0.02
172459,-9.766,-0.026,2.241,-0.005,0.012,-0.02
172562,-9.773,-0.031,2.241,-0.005,0.012,-0.02
172665,-9.776,-0.026,2.239,-0.005,0.012,-0.02
172768,-9.768,-0.026,2.231,-0.004,0.012,-0.02
172871,-9.768,-0.024,2.246,-0.004,0.012,-0.02
172974,-9.766,-0.017,2.251,-0.005,0.013,-0.02
173077,-9.764,-0.026,2.227,-0.004,0.012,-0.02
173180,-9.778,-0.029,2.239,-0.005,0.012,-0.02
173283,-9.771,-0.029,2.241,-0.005,0.012,-0.02
173386,-9.766,-0.024,2.224,-0.005,0.012,-0.02
173489,-9.761,-0.029,2.215,-0.005,0.012,-0.02
173592,-9.771,-0.029,2.231,-0.005,0.012,-0.02
173695,-9.771,-0.019,2.227,-0.005,0.012,-0.02
173798,-9.771,-0.019,2.234,-0.005,0.012,-0.02
173901,-9.766,-0.029,2.239,-0.005,0.012,-0.02
174004,-9.771,-0.031,2.241,-0.005,0.012,-0.021
174107,-9.766,-0.026,2.227,-0.004,0.012,-0.02
174210,-9.773,-0.026,2.227,-0.005,0.012,-0.02
174313,-9.776,-0.034,2.229,-0.005,0.012,-0.02
174416,-9.776,-0.022,2.231,-0.005,0.012,-0.02
174519,-9.768,-0.034,2.227,-0.005,0.012,-0.02
174622,-9.771,-0.026,2.229,-0.005,0.012,-0.021
174725,-9.778,-0.024,2.239,-0.005,0.012,-0.02
174828,-9.766,-0.024,2.224,-0.005,0.012,-0.02
174931,-9.778,-0.019,2.243,-0.005,0.013,-0.02
175034,-9.754,-0.029,2.231,-0.005,0.012,-0.02
175137,-9.787,-0.034,2.236,-0.004,0.013,-0.02
175240,-9.771,-0.031,2.258,-0.005,0.012,-0.02
175343,-9.773,-0.026,2.246,-0.004,0.012,-0.019
175446,-9.773,-0.019,2.243,-0.005,0.012,-0.02
175549,-9.766,-0.014,2.231,-0.005,0.012,-0.02
175652,-9.768,-0.026,2.239,-0.004,0.012,-0.021
175755,-9.771,-0.038,2.248,-0.005,0.012,-0.021
175858,-9.768,-0.024,2.241,-0.005,0.013,-0.02
175961,-9.771,-0.019,2.239,-0.005,0.012,-0.02
176064,-9.778,-0.019,2.236,-0.005,0.012,-0.02
176167,-9.766,-0.017,2.229,-0.004,0.012,-0.021
176270,-9.768,-0.024,2.227,-0.005,0.012,-0.021
176373,-9.773,-0.024,2.243,-0.004,0.012,-0.02
176476,-9.768,-0.031,2.246,-0.004,0.012,-0.02
176579,-9.776,-0.019,2.246,-0.005,0.013,-0.02
176682,-9.773,-0.019,2.229,-0.005,0.012,-0.02
176785,-9.759,-0.022,2.246,-0.005,0.012,-0.02
176888,-9.778,-0.038,2.231,-0.005,0.012,-0.02
176991,-9.78,-0.022,2.239,-0.005,0.012,-0.02
177094,-9.773,-0.024,2.224,-0.005,0.013,-0.02
177197,-9.776,-0.014,2.243,-0.005,0.012,-0.02
177300,-9.776,-0.029,2.234,-0.005,0.012,-0.02
177403,-9.771,-0.019,2.239,-0.005,0.012,-0.02
177506,-9.776,-0.024,2.239,-0.005,0.013,-0.02
177609,-9.773,-0.029,2.239,-0.005,0.013,-0.02
177712,-9.761,-0.029,2.236,-0.005,0.013,-0.021
177815,-9.766,-0.024,2.234,-0.005,0.013,-0.02
177918,-9.771,-0.026,2.243,-0.004,0.012,-0.02
178021,-9.776,-0.022,2.229,-0.005,0.012,-0.02
178124,-9.768,-0.026,2.239,-0.005,0.012,-0.02
178227,-9.761,-0.026,2.248,-0.005,0.013,-0.02
178330,-9.756,-0.026,2.239,-0.005,0.013,-0.02
178433,-9.768,-0.034,2.241,-0.005,0.013,-0.02
178536,-9.771,-0.019,2.241,-0.005,0.012,-0.02
178639,-9.766,-0.031,2.229,-0.005,0.012,-0.02
178742,-9.783,-0.019,2.236,-0.005,0.012,-0.02
178845,-9.773,-0.024,2.236,-0.005,0.012,-0.02
178948,-9.773,-0.026,2.236,-0.005,0.012,-0.021
179051,-9.766,-0.036,2.236,-0.005,0.012,-0.02
179154,-9.776,-0.034,2.246,-0.005,0.012,-0.02
179257,-9.764,-0.024,2.231,-0.005,0.012,-0.02
179360,-9.768,-0.019,2.236,-0.004,0.012,-0.019
179463,-9.773,-0.026,2.243,-0.005,0.012,-0.02
179566,-9.773,-0.022,2.239,-0.005,0.013,-0.02
179669,-9.78,-0.026,2.231,-0.005,0.012,-0.019
179772,-9.764,-0.026,2.234,-0.005,0.012,-0.02
179875,-9.771,-0.022,2.236,-0.005,0.012,-0.02
179978,-9.776,-0.036,2.243,-0.005,0.012,-0.02
180081,-9.771,-0.031,2.234,-0.005,0.012,-0.02
180184,-9.773,-0.026,2.241,-0.005,0.012,-0.02
180287,-9.778,-0.029,2.234,-0.005,0.012,-0.02
180390,-9.766,-0.029,2.243,-0.005,0.012,-0.02
180493,-9.771,-0.029,2.251,-0.005,0.012,-0.02
180596,-9.776,-0.022,2.241,-0.005,0.012,-0.02
180699,-9.768,-0.041,2.241,-0.005,0.012,-0.02
180802,-9.778,-0.024,2.229,-0.005,0.012,-0.02
180905,-9.776,-0.031,2.222,-0.005,0.012,-0.02
181008,-9.773,-0.034,2.234,-0.005,0.012,-0.02
181111,-9.768,-0.026,2.234,-0.005,0.012,-0.021
181214,-9.778,-0.024,2.227,-0.005,0.013,-0.02
181317,-9.766,-0.029,2.222,-0.005,0.013,-0.02
181420,-9.771,-0.024,2.234,-0.005,0.012,-0.02
181523,-9.764,-0.024,2.239,-0.005,0.012,-0.02
181626,-9.766,-0.019,2.217,-0.005,0.012,-0.021
181729,-9.785,-0.022,2.246,-0.005,0.012,-0.02
181832,-9.778,-0.026,2.243,-0.005,0.012,-0.02
181935,-9.783,-0.026,2.239,-0.005,0.012,-0.02
182038,-9.768,-0.034,2.231,-0.004,0.012,-0.02
182141,-9.771,-0.031,2.234,-0.004,0.012,-0.019
182244,-9.776,-0.026,2.236,-0.005,0.012,-0.02
182347,-9.764,-0.041,2.243,-0.005,0.012,-0.02
182450,-9.773,-0.031,2.239,-0.005,0.012,-0.02
182553,-9.768,-0.029,2.236,-0.005,0.012,-0.021
182656,-9.771,-0.029,2.253,-0.005,0.012,-0.02
182759,-9.768,-0.031,2.246,-0.004,0.012,-0.02
182862,-9.776,-0.024,2.229,-0.005,0.012,-0.02
182965,-9.778,-0.019,2.239,-0.005,0.012,-0.021
183068,-9.773,-0.031,2.224,-0.005,0.012,-0.02
183171,-9.771,-0.024,2.234,-0.005,0.012,-0.02
183274,-9.766,-0.029,2.243,-0.005,0.012,-0.02
183377,-9.768,-0.034,2.236,-0.005,0.012,-0.02
183480,-9.764,-0.031,2.234,-0.005,0.012,-0.02
183583,-9.771,-0.031,2.255,-0.005,0.012,-0.02
183686,-9.776,-0.024,2.229,-0.005,0.011,-0.02
183789,-9.778,-0.022,2.231,-0.005,0.013,-0.02
183892,-9.773,-0.024,2.248,-0.005,0.012,-0.02
183995,-9.778,-0.024,2.215,-0.005,0.012,-0.02
184098,-9.771,-0.031,2.241,-0.005,0.012,-0.019
184201,-9.766,-0.026,2.231,-0.005,0.012,-0.02
184304,-9.776,-0.038,2.234,-0.004,0.012,-0.02
184407,-9.768,-0.029,2.234,-0.005,0.013,-0.02
184510,-9.78,-0.019,2.243,-0.005,0.012,-0.019
184613,-9.773,-0.029,2.236,-0.005,0.012,-0.02
184716,-9.776,-0.031,2.234,-0.005,0.012,-0.02
184819,-9.766,-0.026,2.224,-0.005,0.012,-0.02
184922,-9.768,-0.029,2.229,-0.005,0.012,-0.02
185025,-9.771,-0.029,2.241,-0.005,0.012,-0.02
185128,-9.778,-0.026,2.236,-0.005,0.013,-0.02
185231,-9.766,-0.024,2.227,-0.005,0.013,-0.02
185334,-9.773,-0.024,2.222,-0.005,0.012,-0.019
185437,-9.764,-0.019,2.234,-0.005,0.012,-0.02
185540,-9.766,-0.029,2.236,-0.005,0.012,-0.02
185643,-9.778,-0.031,2.246,-0.005,0.012,-0.02
185746,-9.759,-0.024,2.248,-0.004,0.012,-0.02
185849,-9.773,-0.026,2.229,-0.005,0.012,-0.02
185952,-9.773,-0.031,2.243,-0.005,0.012,-0.02
186055,-9.771,-0.029,2.248,-0.005,0.012,-0.02
186158,-9.776,-0.022,2.229,-0.005,0.011,-0.02
186261,-9.764,-0.026,2.229,-0.005,0.012,-0.02
186364,-9.771,-0.034,2.246,-0.005,0.012,-0.02
186467,-9.771,-0.034,2.239,-0.004,0.012,-0.02
186570,-9.768,-0.029,2.217,-0.005,0.012,-0.02
186673,-9.773,-0.038,2.234,-0.005,0.012,-0.019
186776,-9.768,-0.019,2.236,-0.005,0.012,-0.02
186879,-9.771,-0.026,2.236,-0.005,0.012,-0.019
186982,-9.778,-0.022,2.231,-0.004,0.012,-0.02
187085,-9.766,-0.034,2.241,-0.005,0.012,-0.02
187188,-9.766,-0.034,2.236,-0.005,0.012,-0.02
187291,-9.778,-0.024,2.236,-0.005,0.012,-0.02
187394,-9.771,-0.024,2.234,-0.005,0.011,-0.02
187497,-9.766,-0.041,2.224,-0.005,0.012,-0.021
187600,-9.766,-0.026,2.241,-0.005,0.012,-0.019
187703,-9.776,-0.029,2.239,-0.005,0.012,-0.02
187806,-9.768,-0.034,2.253,-0.005,0.012,-0.02
187909,-9.771,-0.038,2.241,-0.004,0.012,-0.02
188012,-9.795,-0.026,2.236,-0.004,0.012,-0.02
188115,-9.778,-0.022,2.231,-0.005,0.013,-0.02
188218,-9.764,-0.024,2.231,-0.005,0.012,-0.02
188321,-9.771,-0.031,2.236,-0.005,0.012,-0.02
188424,-9.766,-0.034,2.227,-0.005,0.011,-0.021
188527,-9.773,-0.024,2.229,-0.004,0.012,-0.02
188630,-9.771,-0.029,2.229,-0.005,0.012,-0.019
188733,-9.768,-0.026,2.243,-0.005,0.012,-0.019
188836,-9.766,-0.029,2.212,-0.005,0.012,-0.02
188939,-9.768,-0.029,2.234,-0.005,0.012,-0.02
189042,-9.78,-0.019,2.239,-0.005,0.012,-0.02
189145,-9.768,-0.017,2.234,-0.005,0.012,-0.02
189248,-9.776,-0.031,2.224,-0.005,0.012,-0.02
189351,-9.771,-0.036,2.251,-0.005,0.012,-0.02
189454,-9.771,-0.031,2.241,-0.005,0.012,-0.02
189557,-9.771,-0.031,2.234,-0.005,0.012,-0.021
189660,-9.776,-0.022,2.236,-0.005,0.012,-0.02
189763,-9.768,-0.026,2.239,-0.005,0.013,-0.02
189866,-9.768,-0.038,2.246,-0.005,0.012,-0.02
189969,-9.764,-0.024,2.248,-0.005,0.012,-0.02
190072,-9.761,-0.031,2.234,-0.005,0.012,-0.02
190175,-9.768,-0.029,2.239,-0.005,0.012,-0.02
190278,-9.773,-0.029,2.236,-0.005,0.012,-0.021
190381,-9.759,-0.024,2.243,-0.005,0.012,-0.019
190484,-9.768,-0.038,2.229,-0.005,0.012,-0.02
190587,-9.776,-0.019,2.236,-0.005,0.013,-0.02
190690,-9.771,-0.022,2.222,-0.004,0.012,-0.02
190793,-9.768,-0.026,2.243,-0.005,0.013,-0.02
190896,-9.776,-0.024,2.222,-0.005,0.012,-0.02
190999,-9.771,-0.024,2.231,-0.005,0.012,-0.02
191102,-9.759,-0.031,2.219,-0.005,0.012,-0.02
191205,-9.776,-0.029,2.236,-0.005,0.012,-0.019
191308,-9.768,-0.022,2.231,-0.005,0.013,-0.02
191411,-9.764,-0.026,2.231,-0.005,0.012,-0.019
191514,-9.773,-0.026,2.231,-0.005,0.012,-0.02
191617,-9.778,-0.026,2.246,-0.005,0.012,-0.02
191720,-9.771,-0.029,2.241,-0.005,0.012,-0.019
191823,-9.776,-0.024,2.234,-0.005,0.013,-0.02
191926,-9.776,-0.029,2.236,-0.005,0.012,-0.02
192029,-9.766,-0.029,2.243,-0.004,0.012,-0.02
192132,-9.771,-0.019,2.241,-0.005,0.012,-0.02
192235,-9.764,-0.034,2.229,-0.005,0.012,-0.02
192338,-9.773,-0.031,2.229,-0.004,0.013,-0.02
192441,-9.768,-0.019,2.227,-0.005,0.012,-0.02
192544,-9.766,-0.026,2.236,-0.004,0.012,-0.02
192647,-9.771,-0.022,2.236,-0.005,0.012,-0.019
192750,-9.776,-0.034,2.239,-0.004,0.012,-0.019
192853,-9.768,-0.019,2.219,-0.005,0.012,-0.02
192956,-9.778,-0.026,2.239,-0.005,0.012,-0.02
193059,-9.776,-0.022,2.234,-0.005,0.012,-0.02
193162,-9.768,-0.026,2.236,-0.005,0.012,-0.021
193265,-9.773,-0.024,2.253,-0.004,0.012,-0.02
193368,-9.776,-0.026,2.241,-0.005,0.012,-0.02
193471,-9.766,-0.026,2.251,-0.005,0.012,-0.02
193574,-9.766,-0.019,2.246,-0.005,0.012,-0.02
193677,-9.766,-0.031,2.239,-0.005,0.012,-0.02
193780,-9.766,-0.019,2.224,-0.005,0.012,-0.02
193883,-9.773,-0.031,2.231,-0.005,0.012,-0.02
193986,-9.768,-0.026,2.251,-0.005,0.012,-0.02
194089,-9.771,-0.029,2.231,-0.005,0.012,-0.019
194192,-9.771,-0.029,2.236,-0.004,0.012,-0.02
194295,-9.771,-0.024,2.234,-0.005,0.012,-0.02
194398,-9.768,-0.017,2.229,-0.005,0.012,-0.02
194501,-9.764,-0.026,2.229,-0.004,0.012,-0.02
194604,-9.764,-0.029,2.231,-0.004,0.012,-0.02
194707,-9.773,-0.024,2.239,-0.005,0.012,-0.019
194810,-9.768,-0.029,2.251,-0.005,0.012,-0.02
194913,-9.764,-0.022,2.248,-0.005,0.012,-0.02
195016,-9.764,-0.024,2.248,-0.005,0.012,-0.02
195119,-9.768,-0.012,2.246,-0.004,0.012,-0.02
195222,-9.773,-0.026,2.234,-0.005,0.012,-0.02
195325,-9.771,-0.038,2.234,-0.004,0.013,-0.02
195428,-9.768,-0.022,2.246,-0.005,0.012,-0.02
195531,-9.768,-0.034,2.243,-0.005,0.012,-0.02
195634,-9.776,-0.031,2.241,-0.005,0.012,-0.021
195737,-9.771,-0.029,2.241,-0.005,0.012,-0.02
195840,-9.766,-0.036,2.231,-0.005,0.012,-0.02
195943,-9.776,-0.024,2.241,-0.005,0.012,-0.02
196046,-9.771,-0.029,2.241,-0.005,0.012,-0.02
196149,-9.783,-0.029,2.234,-0.005,0.012,-0.02
196252,-9.771,-0.036,2.243,-0.005,0.012,-0.02
196355,-9.766,-0.024,2.236,-0.004,0.012,-0.02
196458,-9.778,-0.026,2.227,-0.004,0.012,-0.02
196561,-9.773,-0.029,2.239,-0.005,0.012,-0.02
196664,-9.776,-0.029,2.234,-0.004,0.013,-0.02
196767,-9.776,-0.031,2.234,-0.005,0.012,-0.02
196870,-9.771,-0.031,2.229,-0.005,0.012,-0.02
196973,-9.776,-0.029,2.241,-0.004,0.011,-0.02
197076,-9.768,-0.034,2.243,-0.005,0.013,-0.02
197179,-9.768,-0.029,2.231,-0.005,0.012,-0.02
197282,-9.773,-0.029,2.239,-0.005,0.012,-0.02
197385,-9.773,-0.026,2.251,-0.005,0.012,-0.02
197488,-9.764,-0.026,2.231,-0.005,0.012,-0.02
197591,-9.776,-0.026,2.224,-0.005,0.012,-0.02
197694,-9.768,-0.029,2.248,-0.005,0.012,-0.02
197797,-9.778,-0.019,2.243,-0.005,0.012,-0.02
197900,-9.771,-0.026,2.231,-0.006,0.012,-0.019
198003,-9.771,-0.024,2.231,-0.005,0.013,-0.021
198106,-9.752,-0.036,2.231,-0.004,0.012,-0.02
198209,-9.766,-0.026,2.231,-0.005,0.012,-0.02
198312,-9.768,-0.036,2.253,-0.005,0.012,-0.02
198415,-9.768,-0.036,2.246,-0.004,0.013,-0.02
198518,-9.768,-0.026,2.219,-0.005,0.012,-0.02
198621,-9.773,-0.034,2.227,-0.005,0.012,-0.02
198724,-9.776,-0.034,2.239,-0.005,0.012,-0.019
198827,-9.778,-0.026,2.236,-0.005,0.012,-0.02
198930,-9.766,-0.026,2.231,-0.004,0.013,-0.02
199033,-9.776,-0.031,2.229,-0.005,0.012,-0.02
199136,-9.773,-0.031,2.258,-0.005,0.012,-0.02
199239,-9.771,-0.026,2.236,-0.005,0.012,-0.02
199342,-9.766,-0.024,2.251,-0.005,0.012,-0.02
199445,-9.773,-0.031,2.229,-0.005,0.012,-0.02
199548,-9.773,-0.029,2.227,-0.005,0.011,-0.02
199651,-9.764,-0.031,2.236,-0.005,0.012,-0.02
199754,-9.771,-0.036,2.243,-0.005,0.012,-0.02
199857,-9.768,-0.036,2.234,-0.005,0.012,-0.02
199960,-9.773,-0.029,2.236,-0.005,0.011,-0.02
200063,-9.766,-0.031,2.239,-0.005,0.012,-0.02
200166,-9.773,-0.026,2.243,-0.005,0.012,-0.02
200269,-9.778,-0.034,2.243,-0.004,0.011,-0.02
200372,-9.768,-0.024,2.231,-0.005,0.012,-0.02
200475,-9.761,-0.031,2.229,-0.005,0.012,-0.021
200578,-9.768,-0.024,2.239,-0.005,0.012,-0.02
200681,-9.776,-0.024,2.251,-0.005,0.012,-0.02
200784,-9.768,-0.038,2.241,-0.005,0.012,-0.02
200887,-9.766,-0.029,2.227,-0.005,0.012,-0.019
200990,-9.771,-0.017,2.224,-0.005,0.012,-0.02
201093,-9.771,-0.029,2.248,-0.005,0.012,-0.02
201196,-9.768,-0.014,2.246,-0.005,0.013,-0.019
201299,-9.771,-0.024,2.239,-0.005,0.012,-0.02
201402,-9.776,-0.026,2.236,-0.005,0.012,-0.02
201505,-9.766,-0.024,2.239,-0.005,0.012,-0.021
201608,-9.768,-0.031,2.236,-0.005,0.012,-0.02
201711,-9.764,-0.024,2.239,-0.005,0.012,-0.02
201814,-9.776,-0.022,2.236,-0.005,0.012,-0.019
201917,-9.768,-0.029,2.241,-0.005,0.012,-0.02
202020,-9.771,-0.026,2.239,-0.005,0.011,-0.02
202123,-9.759,-0.031,2.243,-0.005,0.012,-0.02
202226,-9.771,-0.026,2.248,-0.005,0.013,-0.02
202329,-9.771,-0.029,2.224,-0.005,0.011,-0.02
202432,-9.773,-0.034,2.236,-0.005,0.012,-0.02
202535,-9.778,-0.036,2.239,-0.005,0.012,-0.02
202638,-9.776,-0.026,2.236,-0.005,0.012,-0.02
202741,-9.773,-0.029,2.229,-0.005,0.012,-0.02
202844,-9.776,-0.029,2.241,-0.005,0.013,-0.021
202947,-9.768,-0.022,2.227,-0.005,0.012,-0.02
203050,-9.766,-0.036,2.234,-0.005,0.012,-0.02
203153,-9.766,-0.029,2.229,-0.004,0.012,-0.02
203256,-9.773,-0.026,2.234,-0.005,0.012,-0.02
203359,-9.776,-0.038,2.229,-0.005,0.012,-0.019
203462,-9.773,-0.026,2.219,-0.005,0.012,-0.021
203565,-9.773,-0.034,2.241,-0.004,0.012,-0.02
203668,-9.761,-0.029,2.239,-0.005,0.012,-0.02
203771,-9.773,-0.034,2.227,-0.005,0.012,-0.02
203874,-9.771,-0.034,2.224,-0.005,0.012,-0.02
203977,-9.771,-0.022,2.222,-0.004,0.013,-0.02
204080,-9.771,-0.026,2.234,-0.004,0.013,-0.02
204183,-9.771,-0.029,2.236,-0.005,0.012,-0.02
204286,-9.783,-0.019,2.234,-0.005,0.012,-0.021
204389,-9.771,-0.022,2.234,-0.005,0.012,-0.02
204492,-9.773,-0.024,2.234,-0.005,0.012,-0.02
204595,-9.773,-0.031,2.246,-0.005,0.012,-0.019
204698,-9.768,-0.026,2.217,-0.005,0.012,-0.02
204801,-9.761,-0.019,2.231,-0.005,0.013,-0.02
204904,-9.773,-0.034,2.229,-0.005,0.012,-0.02
205007,-9.773,-0.031,2.231,-0.005,0.012,-0.02
205110,-9.766,-0.036,2.222,-0.005,0.012,-0.02
205213,-9.764,-0.029,2.236,-0.004,0.012,-0.02
205316,-9.766,-0.029,2.231,-0.005,0.012,-0.019
205419,-9.766,-0.036,2.236,-0.005,0.012,-0.02
205522,-9.776,-0.026,2.236,-0.005,0.012,-0.019
205625,-9.766,-0.026,2.246,-0.005,0.012,-0.02
205728,-9.771,-0.022,2.243,-0.005,0.011,-0.02
205831,-9.773,-0.019,2.243,-0.005,0.012,-0.019
205934,-9.778,-0.026,2.231,-0.004,0.012,-0.02
206037,-9.771,-0.019,2.243,-0.005,0.012,-0.02
206140,-9.768,-0.019,2.239,-0.005,0.012,-0.02
206243,-9.771,-0.024,2.243,-0.005,0.012,-0.02
206346,-9.771,-0.029,2.224,-0.004,0.012,-0.02
206449,-9.771,-0.024,2.239,-0.005,0.012,-0.02
206552,-9.766,-0.034,2.243,-0.005,0.011,-0.02
206655,-9.785,-0.031,2.246,-0.004,0.012,-0.02
206758,-9.776,-0.031,2.229,-0.005,0.012,-0.02
206861,-9.776,-0.036,2.227,-0.004,0.012,-0.02
206964,-9.776,-0.029,2.217,-0.005,0.012,-0.02
207067,-9.768,-0.034,2.231,-0.005,0.012,-0.02
207170,-9.778,-0.029,2.231,-0.005,0.013,-0.02
207273,-9.771,-0.031,2.234,-0.004,0.012,-0.02
207376,-9.766,-0.029,2.234,-0.005,0.012,-0.02
207479,-9.768,-0.024,2.243,-0.005,0.012,-0.02
207582,-9.78,-0.031,2.239,-0.005,0.012,-0.02
207685,-9.773,-0.031,2.229,-0.005,0.012,-0.02
207788,-9.778,-0.026,2.227,-0.005,0.012,-0.019
207891,-9.768,-0.019,2.229,-0.005,0.012,-0.02
207994,-9.771,-0.024,2.251,-0.005,0.012,-0.02
208097,-9.766,-0.024,2.241,-0.004,0.012,-0.02
208200,-9.771,-0.019,2.236,-0.005,0.012,-0.02
208303,-9.771,-0.026,2.224,-0.005,0.012,-0.019
208406,-9.768,-0.029,2.231,-0.005,0.011,-0.02
208509,-9.776,-0.019,2.248,-0.005,0.012,-0.019
208612,-9.776,-0.026,2.241,-0.005,0.012,-0.02
208715,-9.771,-0.034,2.246,-0.005,0.012,-0.02
208818,-9.78,-0.012,2.234,-0.005,0.012,-0.02
208921,-9.771,-0.026,2.236,-0.005,0.012,-0.02
209024,-9.768,-0.031,2.241,-0.005,0.012,-0.019
209127,-9.776,-0.024,2.229,-0.004,0.011,-0.02
209230,-9.773,-0.024,2.243,-0.005,0.012,-0.019
209333,-9.771,-0.024,2.227,-0.004,0.013,-0.02
209436,-9.759,-0.024,2.231,-0.005,0.012,-0.02
209539,-9.771,-0.029,2.246,-0.005,0.012,-0.02
209642,-9.776,-0.029,2.231,-0.005,0.012,-0.02
209745,-9.768,-0.026,2.236,-0.004,0.012,-0.02
209848,-9.764,-0.022,2.243,-0.005,0.012,-0.02
209951,-9.768,-0.034,2.231,-0.005,0.012,-0.02
210054,-9.773,-0.034,2.234,-0.005,0.012,-0.02
210157,-9.778,-0.026,2.229,-0.005,0.011,-0.02
210260,-9.766,-0.036,2.222,-0.005,0.012,-0.02
210363,-9.761,-0.022,2.224,-0.005,0.012,-0.02
210466,-9.771,-0.034,2.241,-0.005,0.012,-0.02
210569,-9.78,-0.031,2.224,-0.004,0.012,-0.02
210672,-9.78,-0.029,2.229,-0.005,0.012,-0.021
210775,-9.764,-0.034,2.231,-0.005,0.012,-0.02
210878,-9.771,-0.036,2.236,-0.005,0.012,-0.02
210981,-9.768,-0.026,2.239,-0.005,0.012,-0.02
211084,-9.776,-0.024,2.234,-0.004,0.012,-0.02
211187,-9.764,-0.029,2.236,-0.005,0.013,-0.02
211290,-9.771,-0.019,2.229,-0.004,0.013,-0.019
211393,-9.778,-0.026,2.236,-0.005,0.012,-0.02
211496,-9.78,-0.024,2.246,-0.005,0.012,-0.02
211599,-9.771,-0.026,2.239,-0.005,0.012,-0.02
211702,-9.773,-0.024,2.229,-0.005,0.012,-0.02
211805,-9.766,-0.017,2.229,-0.005,0.012,-0.02
211908,-9.764,-0.034,2.229,-0.005,0.012,-0.02
212011,-9.773,-0.026,2.246,-0.005,0.012,-0.02
212114,-9.79,-0.024,2.234,-0.005,0.012,-0.02
212217,-9.778,-0.026,2.234,-0.005,0.012,-0.02
212320,-9.778,-0.019,2.243,-0.005,0.012,-0.02
212423,-9.768,-0.019,2.243,-0.005,0.012,-0.02
212526,-9.764,-0.026,2.239,-0.004,0.012,-0.02
212629,-9.771,-0.022,2.243,-0.005,0.012,-0.02
212732,-9.766,-0.022,2.227,-0.005,0.011,-0.02
212835,-9.773,-0.029,2.231,-0.005,0.012,-0.02
212938,-9.768,-0.019,2.234,-0.005,0.012,-0.02
213041,-9.768,-0.017,2.241,-0.005,0.012,-0.02
213144,-9.776,-0.029,2.243,-0.005,0.012,-0.02
213247,-9.761,-0.024,2.258,-0.005,0.012,-0.02
213350,-9.768,-0.034,2.236,-0.005,0.012,-0.02
213453,-9.766,-0.019,2.234,-0.005,0.012,-0.02
213556,-9.773,-0.034,2.246,-0.005,0.012,-0.02
213659,-9.764,-0.024,2.236,-0.005,0.012,-0.02
213762,-9.776,-0.014,2.246,-0.005,0.012,-0.02
213865,-9.776,-0.029,2.246,-0.005,0.012,-0.019
213968,-9.759,-0.031,2.241,-0.005,0.012,-0.02
214071,-9.773,-0.036,2.243,-0.004,0.012,-0.02
214174,-9.771,-0.029,2.234,-0.004,0.012,-0.02
214277,-9.764,-0.031,2.229,-0.005,0.012,-0.02
214380,-9.756,-0.022,2.227,-0.005,0.012,-0.02
214483,-9.778,-0.029,2.239,-0.005,0.013,-0.019
214586,-9.783,-0.024,2.239,-0.005,0.012,-0.02
214689,-9.776,-0.026,2.236,-0.005,0.012,-0.019
214792,-9.771,-0.022,2.227,-0.005,0.013,-0.02
214895,-9.771,-0.019,2.241,-0.004,0.012,-0.02
214998,-9.768,-0.022,2.248,-0.005,0.012,-0.02
215101,-9.771,-0.029,2.236,-0.005,0.012,-0.02
215204,-9.764,-0.031,2.236,-0.005,0.012,-0.02
215307,-9.768,-0.026,2.236,-0.005,0.012,-0.021
215410,-9.768,-0.029,2.246,-0.005,0.012,-0.021
215513,-9.771,-0.034,2.231,-0.004,0.012,-0.02
215616,-9.771,-0.026,2.236,-0.005,0.012,-0.02
215719,-9.754,-0.022,2.217,-0.005,0.012,-0.02
215822,-9.778,-0.031,2.236,-0.005,0.012,-0.02
215925,-9.764,-0.029,2.231,-0.004,0.012,-0.021
216028,-9.768,-0.017,2.253,-0.005,0.012,-0.02
216131,-9.773,-0.022,2.243,-0.004,0.012,-0.021
216234,-9.764,-0.022,2.241,-0.005,0.013,-0.02
216337,-9.766,-0.029,2.224,-0.005,0.012,-0.02
216440,-9.771,-0.024,2.227,-0.005,0.012,-0.02
216543,-9.771,-0.034,2.241,-0.005,0.012,-0.02
216646,-9.764,-0.024,2.231,-0.005,0.012,-0.02
216749,-9.773,-0.022,2.236,-0.004,0.012,-0.02
216852,-9.768,-0.031,2.248,-0.004,0.012,-0.02
216955,-9.768,-0.029,2.239,-0.005,0.012,-0.02
217058,-9.787,-0.034,2.222,-0.004,0.012,-0.02
217161,-9.768,-0.026,2.236,-0.005,0.012,-0.02
217264,-9.776,-0.022,2.224,-0.005,0.011,-0.02
217367,-9.773,-0.034,2.246,-0.005,0.012,-0.02
217470,-9.766,-0.024,2.229,-0.005,0.012,-0.02
217573,-9.768,-0.031,2.248,-0.005,0.012,-0.02
217676,-9.764,-0.034,2.229,-0.005,0.012,-0.02
217779,-9.768,-0.034,2.222,-0.005,0.012,-0.02
217882,-9.773,-0.024,2.239,-0.005,0.012,-0.02
217985,-9.771,-0.026,2.224,-0.005,0.013,-0.02
218088,-9.776,-0.026,2.243,-0.005,0.012,-0.02
218191,-9.773,-0.034,2.222,-0.005,0.012,-0.02
218294,-9.776,-0.026,2.229,-0.005,0.012,-0.02
218397,-9.778,-0.031,2.243,-0.004,0.013,-0.02
218500,-9.771,-0.026,2.236,-0.005,0.012,-0.02
218603,-9.764,-0.031,2.229,-0.005,0.012,-0.02
218706,-9.764,-0.034,2.231,-0.005,0.012,-0.02
218809,-9.778,-0.029,2.224,-0.005,0.013,-0.021
218912,-9.768,-0.038,2.246,-0.005,0.012,-0.02
219015,-9.768,-0.019,2.236,-0.005,0.012,-0.021
219118,-9.761,-0.017,2.231,-0.005,0.012,-0.02
219221,-9.771,-0.022,2.224,-0.005,0.012,-0.02
219324,-9.768,-0.029,2.217,-0.005,0.012,-0.02
219427,-9.771,-0.034,2.236,-0.004,0.012,-0.02
219530,-9.776,-0.026,2.241,-0.005,0.012,-0.02
219633,-9.776,-0.029,2.234,-0.005,0.012,-0.02
219736,-9.766,-0.038,2.239,-0.004,0.012,-0.021
219839,-9.768,-0.024,2.239,-0.005,0.012,-0.02
219942,-9.771,-0.026,2.239,-0.005,0.012,-0.02
220045,-9.766,-0.024,2.241,-0.005,0.012,-0.02
220148,-9.776,-0.022,2.241,-0.005,0.012,-0.02
220251,-9.771,-0.026,2.229,-0.005,0.012,-0.021
220354,-9.771,-0.031,2.231,-0.005,0.012,-0.02
220457,-9.768,-0.014,2.241,-0.005,0.013,-0.02
220560,-9.768,-0.034,2.229,-0.005,0.012,-0.02
220663,-9.773,-0.026,2.243,-0.005,0.012,-0.02
220766,-9.761,-0.031,2.227,-0.005,0.012,-0.02
220869,-9.773,-0.034,2.239,-0.005,0.012,-0.02
220972,-9.773,-0.026,2.231,-0.005,0.013,-0.02
221075,-9.773,-0.024,2.236,-0.005,0.012,-0.02
221178,-9.771,-0.034,2.239,-0.005,0.011,-0.02
221281,-9.766,-0.036,2.246,-0.005,0.012,-0.02
221384,-9.764,-0.036,2.229,-0.005,0.012,-0.019
221487,-9.768,-0.031,2.234,-0.005,0.012,-0.02
221590,-9.766,-0.024,2.234,-0.005,0.013,-0.02
221693,-9.768,-0.024,2.234,-0.004,0.012,-0.02
221796,-9.764,-0.029,2.236,-0.005,0.012,-0.02
221899,-10.228,0.105,3.974,-0.018,0.458,-0.068
222002,-9.222,-0.249,-0.852,-0.037,2.783,-0.215
222105,-9.601,-0.326,-1.705,-0.005,0.277,-0.039
222208,-9.716,-0.309,-1.408,-0.006,0.023,-0.02
222311,-9.716,-0.309,-1.391,-0.004,0.01,-0.021
222414,-9.72,-0.311,-1.41,-0.006,0.013,-0.019
222517,-9.718,-0.302,-1.415,-0.004,0.011,-0.02
222620,-9.716,-0.306,-1.405,-0.005,0.013,-0.019
222723,-9.718,-0.304,-1.413,-0.005,0.011,-0.019
222826,-9.723,-0.309,-1.417,-0.005,0.013,-0.02
222929,-9.723,-0.292,-1.403,-0.005,0.012,-0.02
223032,-9.718,-0.302,-1.429,-0.005,0.012,-0.019
223135,-9.72,-0.309,-1.415,-0.005,0.012,-0.019
223238,-9.725,-0.297,-1.415,-0.005,0.012,-0.02
223341,-9.725,-0.309,-1.393,-0.005,0.012,-0.019
223444,-9.72,-0.304,-1.405,-0.004,0.012,-0.02
223547,-9.718,-0.311,-1.401,-0.005,0.013,-0.02
223650,-9.711,-0.304,-1.415,-0.005,0.013,-0.019
223753,-9.72,-0.299,-1.405,-0.005,0.012,-0.02
223856,-9.718,-0.306,-1.413,-0.005,0.013,-0.02
223959,-9.716,-0.306,-1.398,-0.004,0.012,-0.02
224062,-9.711,-0.306,-1.398,-0.005,0.012,-0.019
224165,-9.716,-0.309,-1.403,-0.005,0.012,-0.02
224268,-9.725,-0.304,-1.403,-0.005,0.012,-0.02
224371,-9.735,-0.299,-1.401,-0.005,0.012,-0.019
224474,-9.093,-0.242,-0.843,0.018,-3.109,0.203
224577,-9.986,-0.005,2.78,0.008,-0.717,0.035
224680,-9.778,-0.026,2.272,-0.006,-0.022,-0.018
224783,-9.776,-0.036,2.234,-0.004,0.009,-0.02
224886,-9.773,-0.019,2.227,-0.005,0.011,-0.021
224989,-9.771,-0.019,2.248,-0.005,0.012,-0.02
225092,-9.766,-0.029,2.251,-0.005,0.011,-0.02
225195,-9.766,-0.022,2.243,-0.005,0.013,-0.02
225298,-9.771,-0.031,2.251,-0.005,0.011,-0.02
225401,-9.759,-0.029,2.243,-0.005,0.012,-0.02
225504,-9.768,-0.036,2.243,-0.005,0.011,-0.02
225607,-9.773,-0.036,2.231,-0.005,0.012,-0.02
225710,-9.773,-0.024,2.236,-0.005,0.012,-0.02
225813,-9.761,-0.024,2.239,-0.005,0.012,-0.02
225916,-9.766,-0.031,2.258,-0.004,0.012,-0.02
226019,-9.771,-0.022,2.251,-0.005,0.012,-0.02
226122,-9.768,-0.026,2.243,-0.005,0.012,-0.02
226225,-9.766,-0.034,2.241,-0.005,0.012,-0.02
226328,-9.771,-0.029,2.248,-0.004,0.013,-0.02
226431,-9.766,-0.019,2.251,-0.004,0.013,-0.02
226534,-9.766,-0.026,2.241,-0.005,0.012,-0.02
226637,-9.754,-0.038,2.258,-0.005,0.012,-0.02
226740,-9.764,-0.031,2.246,-0.005,0.012,-0.019
226843,-9.764,-0.022,2.255,-0.005,0.012,-0.019
226946,-9.776,-0.031,2.255,-0.005,0.012,-0.02
227049,-9.778,-0.026,2.234,-0.005,0.011,-0.02
227152,-9.773,-0.029,2.239,-0.005,0.012,-0.02
227255,-9.764,-0.031,2.253,-0.005,0.012,-0.02
227358,-9.761,-0.031,2.243,-0.005,0.012,-0.02
227461,-9.771,-0.029,2.255,-0.005,0.012,-0.02
227564,-9.771,-0.026,2.239,-0.004,0.012,-0.02
227667,-9.768,-0.029,2.241,-0.005,0.012,-0.021
227770,-9.773,-0.029,2.231,-0.004,0.011,-0.02
227873,-9.776,-0.022,2.231,-0.005,0.012,-0.021
227976,-9.78,-0.036,2.241,-0.005,0.012,-0.02
228079,-9.761,-0.031,2.243,-0.005,0.012,-0.021
228182,-9.766,-0.034,2.243,-0.005,0.012,-0.02
228285,-9.768,-0.036,2.251,-0.005,0.012,-0.02
228388,-9.761,-0.022,2.234,-0.005,0.012,-0.02
228491,-9.761,-0.022,2.246,-0.005,0.012,-0.02
228594,-9.773,-0.031,2.241,-0.004,0.013,-0.02
228697,-9.768,-0.034,2.241,-0.005,0.012,-0.021
228800,-9.766,-0.031,2.241,-0.004,0.012,-0.02
228903,-9.771,-0.038,2.234,-0.004,0.012,-0.02
229006,-9.776,-0.034,2.248,-0.005,0.012,-0.02
229109,-9.776,-0.034,2.253,-0.005,0.013,-0.02
229212,-9.764,-0.026,2.243,-0.005,0.012,-0.02
229315,-9.768,-0.036,2.26,-0.005,0.012,-0.02
229418,-9.759,-0.029,2.258,-0.005,0.012,-0.021
229521,-9.771,-0.022,2.248,-0.004,0.012,-0.02
229624,-9.768,-0.019,2.239,-0.004,0.012,-0.02
229727,-9.771,-0.026,2.231,-0.005,0.012,-0.02
229830,-9.776,-0.029,2.239,-0.005,0.012,-0.02
229933,-9.773,-0.026,2.243,-0.005,0.012,-0.02
230036,-9.756,-0.022,2.241,-0.004,0.012,-0.02
230139,-9.768,-0.026,2.217,-0.005,0.012,-0.02
230242,-9.783,-0.031,2.236,-0.005,0.012,-0.02
230345,-9.768,-0.026,2.236,-0.004,0.012,-0.02
230448,-9.776,-0.031,2.236,-0.005,0.012,-0.02
230551,-9.771,-0.026,2.253,-0.005,0.012,-0.02
230654,-9.78,-0.038,2.246,-0.005,0.012,-0.02
230757,-9.768,-0.034,2.251,-0.005,0.012,-0.02
230860,-9.766,-0.026,2.243,-0.005,0.012,-0.02
230963,-9.768,-0.019,2.241,-0.005,0.012,-0.02
231066,-9.776,-0.029,2.248,-0.004,0.012,-0.02
231169,-9.771,-0.026,2.251,-0.005,0.012,-0.02
231272,-9.766,-0.022,2.246,-0.005,0.012,-0.02
231375,-9.768,-0.022,2.241,-0.005,0.012,-0.02
231478,-9.771,-0.019,2.229,-0.005,0.012,-0.02
231581,-9.764,-0.029,2.241,-0.005,0.012,-0.021
231684,-9.764,-0.031,2.231,-0.005,0.012,-0.02
231787,-9.768,-0.019,2.255,-0.005,0.012,-0.02
231890,-9.766,-0.031,2.243,-0.005,0.012,-0.02
231993,-9.776,-0.024,2.234,-0.005,0.012,-0.02
232096,-9.766,-0.036,2.251,-0.004,0.013,-0.02
232199,-9.761,-0.034,2.234,-0.005,0.013,-0.019
232302,-9.771,-0.019,2.246,-0.005,0.012,-0.02
232405,-9.764,-0.022,2.248,-0.005,0.012,-0.02
232508,-9.766,-0.031,2.26,-0.005,0.012,-0.02
232611,-9.778,-0.026,2.251,-0.005,0.012,-0.02
232714,-9.771,-0.036,2.239,-0.004,0.012,-0.02
232817,-9.768,-0.031,2.255,-0.005,0.012,-0.02
232920,-9.773,-0.029,2.251,-0.004,0.012,-0.02
233023,-9.761,-0.022,2.243,-0.005,0.012,-0.02
233126,-9.766,-0.026,2.241,-0.005,0.013,-0.02
233229,-9.768,-0.029,2.243,-0.005,0.012,-0.02
233332,-9.773,-0.024,2.253,-0.005,0.013,-0.02
233435,-9.761,-0.026,2.251,-0.005,0.013,-0.02
233538,-9.768,-0.029,2.243,-0.005,0.012,-0.02
233641,-9.768,-0.029,2.258,-0.005,0.012,-0.02
233744,-9.766,-0.034,2.251,-0.005,0.012,-0.02
233847,-9.771,-0.026,2.253,-0.005,0.012,-0.02
233950,-9.778,-0.026,2.246,-0.005,0.011,-0.02
234053,-9.768,-0.026,2.236,-0.005,0.012,-0.02
234156,-9.766,-0.034,2.239,-0.005,0.012,-0.019
234259,-9.773,-0.034,2.241,-0.005,0.013,-0.02
234362,-9.771,-0.029,2.241,-0.005,0.012,-0.02
234465,-9.766,-0.031,2.236,-0.005,0.012,-0.021
234568,-9.773,-0.036,2.255,-0.005,0.012,-0.02
234671,-9.761,-0.026,2.248,-0.005,0.012,-0.02
234774,-9.776,-0.031,2.241,-0.004,0.012,-0.02
234877,-9.773,-0.022,2.246,-0.005,0.011,-0.02
234980,-9.766,-0.024,2.253,-0.005,0.012,-0.02
235083,-9.764,-0.026,2.258,-0.005,0.012,-0.02
235186,-9.776,-0.026,2.234,-0.004,0.012,-0.019
235289,-9.771,-0.026,2.248,-0.005,0.012,-0.02
235392,-9.764,-0.031,2.246,-0.005,0.012,-0.02
235495,-9.771,-0.034,2.231,-0.004,0.012,-0.02
235598,-9.771,-0.026,2.243,-0.005,0.012,-0.02
235701,-9.776,-0.034,2.241,-0.005,0.012,-0.021
235804,-9.766,-0.026,2.253,-0.005,0.012,-0.02
235907,-9.771,-0.031,2.248,-0.005,0.012,-0.02
236010,-9.764,-0.043,2.239,-0.005,0.011,-0.02
236113,-9.773,-0.036,2.243,-0.005,0.012,-0.02
236216,-9.778,-0.029,2.243,-0.004,0.012,-0.02
236319,-9.761,-0.022,2.243,-0.005,0.012,-0.02
236422,-9.766,-0.031,2.241,-0.005,0.012,-0.02
236525,-9.761,-0.034,2.246,-0.005,0.013,-0.02
236628,-9.783,-0.026,2.231,-0.004,0.013,-0.02
236731,-9.773,-0.034,2.224,-0.005,0.012,-0.021
236834,-9.776,-0.024,2.251,-0.004,0.012,-0.02
236937,-9.776,-0.019,2.234,-0.005,0.012,-0.021
237040,-9.773,-0.029,2.251,-0.005,0.012,-0.02
237143,-9.761,-0.024,2.236,-0.005,0.012,-0.02
237246,-9.766,-0.031,2.258,-0.005,0.012,-0.02
237349,-9.766,-0.031,2.236,-0.005,0.012,-0.02
237452,-9.78,-0.026,2.234,-0.005,0.012,-0.02
237555,-9.764,-0.022,2.251,-0.005,0.012,-0.02
237658,-9.766,-0.022,2.241,-0.005,0.012,-0.02
237761,-9.776,-0.038,2.255,-0.005,0.012,-0.02
237864,-9.773,-0.034,2.26,-0.005,0.012,-0.02
237967,-9.764,-0.019,2.263,-0.005,0.012,-0.02
238070,-9.766,-0.031,2.236,-0.005,0.012,-0.02
238173,-9.768,-0.029,2.251,-0.004,0.013,-0.021
238276,-9.768,-0.024,2.248,-0.005,0.012,-0.02
238379,-9.778,-0.022,2.248,-0.005,0.012,-0.02
238482,-9.768,-0.029,2.236,-0.005,0.011,-0.02
238585,-9.768,-0.024,2.248,-0.005,0.012,-0.02
238688,-9.761,-0.031,2.255,-0.005,0.012,-0.02
238791,-9.766,-0.029,2.243,-0.005,0.012,-0.02
238894,-9.773,-0.026,2.243,-0.005,0.012,-0.02
238997,-9.771,-0.029,2.258,-0.005,0.012,-0.021
239100,-9.764,-0.024,2.258,-0.004,0.012,-0.02
239203,-9.771,-0.036,2.251,-0.005,0.012,-0.019
239306,-9.761,-0.026,2.246,-0.005,0.012,-0.02
239409,-9.764,-0.026,2.255,-0.005,0.012,-0.02
239512,-9.768,-0.024,2.248,-0.005,0.012,-0.02
239615,-9.771,-0.029,2.26,-0.005,0.012,-0.02
239718,-9.759,-0.036,2.253,-0.005,0.012,-0.019
239821,-9.771,-0.034,2.236,-0.005,0.013,-0.02
239924,-9.764,-0.029,2.243,-0.005,0.012,-0.019
240027,-9.771,-0.031,2.243,-0.005,0.012,-0.02
240130,-9.768,-0.026,2.231,-0.004,0.011,-0.02
240233,-9.766,-0.036,2.246,-0.005,0.013,-0.02
240336,-9.768,-0.024,2.255,-0.005,0.012,-0.02
240439,-9.761,-0.022,2.251,-0.005,0.012,-0.02
240542,-9.766,-0.029,2.236,-0.004,0.012,-0.02
240645,-9.768,-0.024,2.253,-0.005,0.012,-0.02
240748,-9.773,-0.031,2.239,-0.005,0.012,-0.02
240851,-9.766,-0.029,2.258,-0.005,0.012,-0.02
240954,-9.761,-0.019,2.241,-0.005,0.012,-0.02
241057,-9.761,-0.036,2.236,-0.005,0.012,-0.02
241160,-9.761,-0.026,2.246,-0.005,0.012,-0.02
241263,-9.764,-0.036,2.241,-0.004,0.013,-0.02
241366,-9.776,-0.036,2.251,-0.004,0.012,-0.02
241469,-9.766,-0.017,2.236,-0.005,0.012,-0.02
241572,-9.773,-0.026,2.246,-0.005,0.012,-0.02
241675,-9.768,-0.031,2.239,-0.005,0.012,-0.02
241778,-9.771,-0.024,2.234,-0.005,0.012,-0.02
241881,-9.766,-0.034,2.236,-0.005,0.013,-0.02
241984,-9.766,-0.022,2.246,-0.005,0.012,-0.021
242087,-9.773,-0.031,2.248,-0.005,0.013,-0.021
242190,-9.778,-0.029,2.248,-0.005,0.012,-0.02
242293,-9.771,-0.026,2.243,-0.004,0.012,-0.019
242396,-9.761,-0.029,2.253,-0.005,0.012,-0.02
242499,-9.768,-0.029,2.241,-0.005,0.013,-0.02
242602,-9.761,-0.036,2.255,-0.005,0.012,-0.02
242705,-9.783,-0.022,2.243,-0.005,0.012,-0.02
242808,-9.766,-0.019,2.246,-0.005,0.013,-0.02
242911,-9.766,-0.031,2.236,-0.004,0.012,-0.02
243014,-9.766,-0.034,2.243,-0.005,0.011,-0.02
243117,-9.768,-0.019,2.246,-0.005,0.012,-0.02
243220,-9.771,-0.026,2.246,-0.005,0.012,-0.02
243323,-9.776,-0.019,2.241,-0.005,0.012,-0.021
243426,-9.761,-0.034,2.243,-0.005,0.012,-0.02
243529,-9.766,-0.026,2.236,-0.005,0.012,-0.02
243632,-9.768,-0.031,2.258,-0.005,0.012,-0.02
243735,-9.768,-0.034,2.267,-0.005,0.012,-0.02
243838,-9.756,-0.031,2.236,-0.005,0.012,-0.02
243941,-9.766,-0.026,2.246,-0.005,0.012,-0.02
244044,-9.773,-0.029,2.253,-0.005,0.013,-0.02
244147,-9.771,-0.029,2.248,-0.005,0.012,-0.02
244250,-9.768,-0.038,2.246,-0.005,0.012,-0.02
244353,-9.776,-0.031,2.243,-0.005,0.012,-0.02
244456,-9.766,-0.029,2.253,-0.005,0.012,-0.02
244559,-9.768,-0.038,2.251,-0.005,0.012,-0.02
244662,-9.754,-0.024,2.258,-0.005,0.012,-0.02
244765,-9.771,-0.036,2.243,-0.005,0.012,-0.02
244868,-9.766,-0.029,2.243,-0.005,0.012,-0.02
244971,-9.768,-0.036,2.246,-0.005,0.012,-0.021
245074,-9.768,-0.036,2.246,-0.005,0.013,-0.02
245177,-9.761,-0.024,2.239,-0.005,0.012,-0.019
245280,-9.776,-0.043,2.253,-0.005,0.012,-0.02
245383,-9.768,-0.026,2.231,-0.005,0.012,-0.021
245486,-9.773,-0.024,2.239,-0.005,0.012,-0.02
245589,-9.773,-0.031,2.26,-0.005,0.012,-0.021
245692,-9.766,-0.026,2.241,-0.005,0.012,-0.02
245795,-9.771,-0.034,2.246,-0.005,0.012,-0.021
245898,-9.78,-0.024,2.243,-0.005,0.012,-0.02
246001,-9.766,-0.036,2.246,-0.005,0.012,-0.02
246104,-9.78,-0.022,2.239,-0.004,0.012,-0.02
246207,-9.768,-0.029,2.246,-0.005,0.012,-0.02
246310,-9.776,-0.029,2.234,-0.005,0.013,-0.02
246413,-9.761,-0.031,2.231,-0.004,0.012,-0.021
246516,-9.776,-0.038,2.239,-0.005,0.012,-0.02
246619,-9.766,-0.019,2.241,-0.004,0.012,-0.02
246722,-9.778,-0.029,2.231,-0.005,0.013,-0.02
246825,-9.768,-0.029,2.248,-0.005,0.012,-0.02
246928,-9.771,-0.031,2.229,-0.005,0.012,-0.02
247031,-9.761,-0.024,2.255,-0.005,0.012,-0.019
247134,-9.759,-0.031,2.246,-0.005,0.012,-0.02
247237,-9.768,-0.019,2.234,-0.005,0.012,-0.021
247340,-9.771,-0.031,2.241,-0.005,0.012,-0.02
247443,-9.773,-0.031,2.253,-0.005,0.012,-0.021
247546,-9.771,-0.029,2.258,-0.005,0.012,-0.02
247649,-9.764,-0.026,2.227,-0.005,0.012,-0.02
247752,-9.761,-0.026,2.236,-0.005,0.011,-0.02
247855,-9.768,-0.029,2.258,-0.005,0.012,-0.02
247958,-9.761,-0.026,2.253,-0.005,0.012,-0.02
248061,-9.778,-0.031,2.251,-0.005,0.012,-0.02
248164,-9.768,-0.022,2.246,-0.005,0.012,-0.02
248267,-9.764,-0.026,2.241,-0.005,0.012,-0.02
248370,-9.768,-0.017,2.236,-0.005,0.012,-0.02
248473,-9.766,-0.029,2.248,-0.005,0.012,-0.02
248576,-9.766,-0.024,2.234,-0.005,0.012,-0.02
248679,-9.766,-0.024,2.246,-0.005,0.012,-0.02
248782,-9.766,-0.031,2.253,-0.005,0.012,-0.02
248885,-9.766,-0.034,2.246,-0.005,0.012,-0.02
248988,-9.761,-0.034,2.246,-0.005,0.012,-0.02
249091,-9.764,-0.034,2.239,-0.004,0.012,-0.02
249194,-9.776,-0.031,2.241,-0.004,0.013,-0.02
249297,-9.761,-0.036,2.248,-0.005,0.012,-0.019
249400,-9.764,-0.029,2.229,-0.005,0.012,-0.02
249503,-9.756,-0.026,2.253,-0.005,0.012,-0.02
249606,-9.771,-0.031,2.243,-0.005,0.012,-0.021
249709,-9.78,-0.026,2.246,-0.004,0.012,-0.02
249812,-9.766,-0.031,2.241,-0.005,0.012,-0.02
249915,-9.773,-0.038,2.253,-0.005,0.012,-0.02
250018,-9.764,-0.026,2.231,-0.005,0.012,-0.02
250121,-9.771,-0.024,2.246,-0.004,0.012,-0.02
250224,-9.764,-0.026,2.243,-0.004,0.012,-0.02
250327,-9.768,-0.019,2.241,-0.005,0.012,-0.02
250430,-9.778,-0.034,2.253,-0.005,0.012,-0.02
250533,-9.764,-0.019,2.253,-0.005,0.012,-0.02
250636,-9.766,-0.019,2.234,-0.005,0.012,-0.02
250739,-9.756,-0.034,2.236,-0.005,0.012,-0.02
250842,-9.759,-0.029,2.236,-0.005,0.012,-0.021
250945,-9.752,-0.029,2.255,-0.005,0.012,-0.02
251048,-9.768,-0.036,2.255,-0.005,0.012,-0.02
251151,-9.768,-0.038,2.241,-0.005,0.012,-0.02
251254,-9.766,-0.029,2.241,-0.005,0.012,-0.02
251357,-9.768,-0.026,2.239,-0.005,0.012,-0.02
251460,-9.773,-0.024,2.251,-0.005,0.012,-0.021
251563,-9.773,-0.026,2.239,-0.004,0.012,-0.02
251666,-9.771,-0.031,2.246,-0.004,0.012,-0.021
251769,-9.773,-0.029,2.234,-0.004,0.012,-0.02
251872,-9.768,-0.036,2.255,-0.004,0.012,-0.021
251975,-9.776,-0.026,2.243,-0.005,0.012,-0.02
252078,-9.768,-0.031,2.234,-0.005,0.011,-0.02
252181,-9.771,-0.026,2.246,-0.005,0.012,-0.021
252284,-9.761,-0.034,2.246,-0.005,0.012,-0.02
252387,-9.776,-0.029,2.26,-0.004,0.012,-0.02
252490,-9.771,-0.017,2.231,-0.005,0.012,-0.02
252593,-9.768,-0.031,2.243,-0.005,0.012,-0.021
252696,-9.768,-0.031,2.246,-0.005,0.012,-0.02
252799,-9.768,-0.017,2.234,-0.005,0.013,-0.021
252902,-9.766,-0.036,2.231,-0.005,0.012,-0.02
253005,-9.768,-0.026,2.236,-0.005,0.012,-0.019
253108,-9.776,-0.036,2.251,-0.005,0.012,-0.02
253211,-9.759,-0.019,2.241,-0.005,0.012,-0.02
253314,-9.776,-0.029,2.231,-0.005,0.012,-0.021
253417,-9.771,-0.029,2.248,-0.005,0.012,-0.02
253520,-9.773,-0.031,2.251,-0.004,0.012,-0.02
253623,-9.768,-0.041,2.227,-0.005,0.013,-0.02
253726,-9.768,-0.024,2.251,-0.005,0.013,-0.02
253829,-9.761,-0.024,2.243,-0.005,0.012,-0.019
253932,-9.759,-0.031,2.248,-0.005,0.012,-0.02
254035,-9.771,-0.029,2.239,-0.005,0.012,-0.02
254138,-9.776,-0.029,2.234,-0.005,0.012,-0.021
254241,-9.776,-0.026,2.251,-0.005,0.012,-0.02
254344,-9.768,-0.022,2.248,-0.005,0.012,-0.02
254447,-9.776,-0.038,2.246,-0.005,0.012,-0.02
254550,-9.771,-0.029,2.248,-0.005,0.012,-0.019
254653,-9.773,-0.022,2.248,-0.005,0.012,-0.02
254756,-9.766,-0.014,2.246,-0.005,0.012,-0.02
254859,-9.768,-0.026,2.248,-0.005,0.012,-0.02
254962,-9.773,-0.024,2.26,-0.005,0.012,-0.019
255065,-9.771,-0.034,2.251,-0.005,0.012,-0.02
255168,-9.761,-0.029,2.236,-0.005,0.012,-0.02
255271,-9.766,-0.024,2.234,-0.004,0.013,-0.02
255374,-9.764,-0.026,2.241,-0.005,0.012,-0.02
255477,-9.764,-0.026,2.239,-0.005,0.012,-0.02
255580,-9.766,-0.029,2.251,-0.005,0.012,-0.019
255683,-9.768,-0.026,2.241,-0.005,0.012,-0.019
255786,-9.778,-0.029,2.239,-0.005,0.013,-0.02
255889,-9.761,-0.029,2.248,-0.005,0.012,-0.021
255992,-9.766,-0.034,2.251,-0.005,0.012,-0.02
256095,-9.773,-0.031,2.248,-0.005,0.012,-0.02
256198,-9.764,-0.024,2.246,-0.005,0.012,-0.02
256301,-9.766,-0.036,2.241,-0.005,0.012,-0.02
256404,-9.771,-0.031,2.243,-0.005,0.012,-0.02
256507,-9.768,-0.029,2.241,-0.005,0.012,-0.02
256610,-9.771,-0.029,2.246,-0.005,0.012,-0.02
256713,-9.771,-0.024,2.236,-0.004,0.012,-0.02
256816,-9.776,-0.026,2.243,-0.005,0.012,-0.02
256919,-9.778,-0.024,2.243,-0.005,0.012,-0.02
257022,-9.766,-0.036,2.246,-0.004,0.012,-0.02
257125,-9.771,-0.026,2.255,-0.005,0.012,-0.02
257228,-9.773,-0.031,2.248,-0.005,0.012,-0.02
257331,-9.768,-0.029,2.236,-0.004,0.012,-0.02
257434,-9.768,-0.029,2.231,-0.005,0.012,-0.02
257537,-9.768,-0.031,2.258,-0.005,0.012,-0.02
257640,-9.761,-0.022,2.234,-0.005,0.012,-0.02
257743,-9.776,-0.031,2.253,-0.005,0.012,-0.021
257846,-9.773,-0.038,2.243,-0.005,0.013,-0.02
257949,-9.78,-0.036,2.243,-0.005,0.012,-0.02
258052,-9.766,-0.026,2.239,-0.005,0.012,-0.02
258155,-9.768,-0.019,2.241,-0.005,0.012,-0.021
258258,-9.773,-0.031,2.253,-0.005,0.012,-0.02
258361,-9.776,-0.029,2.243,-0.005,0.013,-0.02
258464,-9.761,-0.029,2.241,-0.005,0.013,-0.02
258567,-9.761,-0.034,2.239,-0.005,0.012,-0.021
258670,-9.771,-0.024,2.246,-0.005,0.013,-0.021
258773,-9.768,-0.036,2.251,-0.005,0.013,-0.02
258876,-9.773,-0.029,2.229,-0.005,0.012,-0.02
258979,-9.768,-0.029,2.243,-0.005,0.012,-0.02
259082,-9.773,-0.024,2.231,-0.005,0.012,-0.02
259185,-9.773,-0.029,2.251,-0.005,0.012,-0.021
259288,-9.766,-0.026,2.234,-0.005,0.011,-0.02
259391,-9.768,-0.031,2.251,-0.005,0.012,-0.02
259494,-9.776,-0.022,2.251,-0.005,0.012,-0.019
259597,-9.764,-0.026,2.248,-0.005,0.012,-0.02
259700,-9.768,-0.036,2.26,-0.005,0.012,-0.02
259803,-9.768,-0.024,2.243,-0.005,0.012,-0.02
259906,-9.768,-0.029,2.239,-0.005,0.012,-0.02
260009,-9.773,-0.024,2.251,-0.005,0.013,-0.02
260112,-9.761,-0.031,2.243,-0.004,0.012,-0.02
260215,-9.776,-0.026,2.243,-0.005,0.012,-0.02
260318,-9.768,-0.022,2.239,-0.005,0.012,-0.02
260421,-9.768,-0.031,2.231,-0.005,0.012,-0.02
260524,-9.776,-0.036,2.243,-0.004,0.012,-0.02
260627,-9.776,-0.031,2.248,-0.005,0.012,-0.02
260730,-9.761,-0.026,2.253,-0.004,0.012,-0.02
260833,-9.78,-0.019,2.234,-0.005,0.012,-0.02
260936,-9.771,-0.024,2.243,-0.005,0.012,-0.02
261039,-9.761,-0.019,2.231,-0.004,0.012,-0.02
261142,-9.764,-0.034,2.243,-0.005,0.012,-0.02
261245,-9.756,-0.022,2.241,-0.005,0.012,-0.02
261348,-9.768,-0.024,2.248,-0.005,0.012,-0.02
261451,-9.778,-0.038,2.248,-0.004,0.012,-0.02
261554,-9.773,-0.026,2.241,-0.005,0.012,-0.02
261657,-9.764,-0.029,2.231,-0.005,0.012,-0.02
261760,-9.759,-0.026,2.251,-0.005,0.012,-0.02
261863,-9.776,-0.026,2.251,-0.005,0.012,-0.02
261966,-9.771,-0.022,2.246,-0.005,0.012,-0.02
262069,-9.768,-0.029,2.251,-0.005,0.012,-0.02
262172,-9.778,-0.031,2.239,-0.004,0.012,-0.02
262275,-9.771,-0.036,2.227,-0.005,0.011,-0.02
262378,-9.783,-0.031,2.239,-0.005,0.012,-0.02
262481,-9.766,-0.026,2.243,-0.005,0.012,-0.02
262584,-9.766,-0.031,2.241,-0.005,0.012,-0.021
262687,-9.771,-0.029,2.246,-0.005,0.012,-0.02
262790,-9.771,-0.026,2.248,-0.005,0.012,-0.02
262893,-9.778,-0.029,2.241,-0.005,0.013,-0.02
262996,-9.759,-0.022,2.251,-0.005,0.012,-0.02
263099,-9.771,-0.024,2.26,-0.005,0.012,-0.021
263202,-9.756,-0.022,2.248,-0.005,0.012,-0.02
263305,-9.771,-0.022,2.241,-0.005,0.012,-0.021
263408,-9.768,-0.026,2.241,-0.005,0.012,-0.02
263511,-9.766,-0.036,2.243,-0.005,0.012,-0.02
263614,-9.766,-0.031,2.236,-0.005,0.012,-0.02
263717,-9.768,-0.022,2.258,-0.005,0.012,-0.02
263820,-9.761,-0.034,2.234,-0.005,0.012,-0.02
263923,-9.768,-0.024,2.241,-0.004,0.012,-0.02
264026,-9.766,-0.036,2.251,-0.005,0.012,-0.02
264129,-9.761,-0.029,2.251,-0.005,0.013,-0.02
264232,-9.773,-0.034,2.253,-0.005,0.012,-0.021
264335,-9.768,-0.017,2.234,-0.005,0.012,-0.02
264438,-9.783,-0.031,2.243,-0.005,0.012,-0.02
264541,-9.768,-0.029,2.253,-0.005,0.013,-0.02
264644,-9.766,-0.029,2.258,-0.005,0.012,-0.02
264747,-9.766,-0.029,2.246,-0.004,0.012,-0.02
264850,-9.759,-0.029,2.258,-0.005,0.012,-0.019
264953,-9.766,-0.029,2.236,-0.005,0.011,-0.02
265056,-9.766,-0.024,2.248,-0.005,0.012,-0.02
265159,-9.768,-0.031,2.243,-0.005,0.012,-0.02
265262,-9.754,-0.024,2.255,-0.005,0.012,-0.02
265365,-9.766,-0.031,2.227,-0.005,0.012,-0.021
265468,-9.768,-0.026,2.243,-0.005,0.012,-0.021
265571,-9.764,-0.029,2.243,-0.005,0.012,-0.02
265674,-9.78,-0.024,2.236,-0.005,0.013,-0.02
265777,-9.764,-0.022,2.234,-0.005,0.012,-0.02
265880,-9.773,-0.026,2.241,-0.005,0.012,-0.02
265983,-9.771,-0.022,2.246,-0.005,0.012,-0.02
266086,-9.766,-0.034,2.239,-0.005,0.012,-0.02
266189,-9.768,-0.036,2.263,-0.005,0.012,-0.02
266292,-9.761,-0.034,2.248,-0.004,0.012,-0.02
266395,-9.771,-0.029,2.241,-0.004,0.013,-0.02
266498,-9.776,-0.029,2.246,-0.005,0.012,-0.021
266601,-9.778,-0.029,2.258,-0.005,0.012,-0.02
266704,-9.764,-0.031,2.243,-0.005,0.012,-0.02
266807,-9.771,-0.036,2.234,-0.005,0.012,-0.019
266910,-9.78,-0.031,2.253,-0.005,0.012,-0.02
267013,-9.766,-0.034,2.246,-0.005,0.012,-0.02
267116,-9.768,-0.029,2.248,-0.005,0.012,-0.02
267219,-9.778,-0.031,2.258,-0.005,0.012,-0.02
267322,-9.766,-0.026,2.253,-0.005,0.012,-0.021
267425,-9.773,-0.031,2.253,-0.005,0.013,-0.019
267528,-9.773,-0.031,2.243,-0.005,0.012,-0.02
267631,-9.766,-0.045,2.239,-0.005,0.012,-0.02
267734,-9.768,-0.024,2.246,-0.005,0.012,-0.02
267837,-9.773,-0.026,2.246,-0.004,0.012,-0.02
267940,-9.778,-0.031,2.26,-0.005,0.013,-0.02
268043,-9.776,-0.031,2.246,-0.005,0.012,-0.02
268146,-9.768,-0.026,2.255,-0.005,0.012,-0.02
268249,-9.768,-0.026,2.255,-0.004,0.012,-0.021
268352,-9.766,-0.024,2.229,-0.005,0.013,-0.02
268455,-9.756,-0.026,2.231,-0.005,0.012,-0.02
268558,-9.776,-0.024,2.267,-0.005,0.012,-0.021
268661,-9.773,-0.034,2.248,-0.005,0.013,-0.02
268764,-9.761,-0.029,2.248,-0.005,0.012,-0.02
268867,-9.776,-0.031,2.236,-0.005,0.012,-0.019
268970,-9.776,-0.031,2.251,-0.005,0.013,-0.02
269073,-9.768,-0.024,2.243,-0.005,0.012,-0.02
269176,-9.773,-0.031,2.248,-0.005,0.012,-0.02
269279,-9.768,-0.024,2.248,-0.005,0.012,-0.02
269382,-9.773,-0.031,2.246,-0.005,0.012,-0.02
269485,-9.766,-0.024,2.251,-0.005,0.012,-0.02
269588,-9.761,-0.029,2.265,-0.005,0.012,-0.02
269691,-9.771,-0.029,2.243,-0.004,0.012,-0.02
269794,-9.773,-0.026,2.234,-0.005,0.012,-0.02
269897,-9.771,-0.019,2.246,-0.005,0.012,-0.02
270000,-9.771,-0.031,2.248,-0.005,0.012,-0.02
270103,-9.768,-0.017,2.258,-0.005,0.012,-0.02
270206,-9.771,-0.024,2.234,-0.005,0.012,-0.02
270309,-9.764,-0.036,2.251,-0.005,0.012,-0.019
270412,-9.773,-0.031,2.234,-0.005,0.012,-0.02
270515,-9.773,-0.036,2.243,-0.005,0.012,-0.02
270618,-9.778,-0.026,2.246,-0.005,0.012,-0.02
270721,-9.776,-0.031,2.255,-0.005,0.013,-0.02
270824,-9.756,-0.026,2.255,-0.004,0.012,-0.02
270927,-9.764,-0.026,2.236,-0.005,0.012,-0.021
271030,-9.773,-0.034,2.246,-0.005,0.012,-0.021
271133,-9.768,-0.036,2.251,-0.005,0.012,-0.02
271236,-9.773,-0.029,2.263,-0.005,0.012,-0.02
271339,-9.776,-0.026,2.258,-0.005,0.012,-0.02
